File: silicates_UV_vis/Allylsilicates_plot/cat500W.txt
0,0.00330731
1.0005,0.0161646
2.001,0.0396515
3.0015,0.0186677
4.002,0.0183661
5.0025,0.00220755
6.003,0.0284026
7.0035,0.0267862
8.004,0.0150488
9.0045,0.0198861
10.005,0.0333244
11.0055,0.0282157
12.006,0.0153262
13.0065,0.0166471
14.007,0.0335234
15.0075,0.0217197
16.008,0.0258513
17.0085,0.0151453
18.009,0.0224435
19.0095,0.0224555
20.01,0.0256281
21.0105,0.0201153
22.011,0
23.0115,0.0270998
24.012,0.0333123
25.0125,0.016623
26.013,0.0191804
27.0135,0.0284811
28.014,0.0420219
29.0145,0.037064
30.015,0.0207305
31.0155,0.0252904
32.016,0.0396515
33.0165,0.0320156
34.017,0.0527521
35.0175,0.0602553
36.018,0.0409543
37.0185,0.0543685
38.019,0.0481681
39.0195,0.0343558
40.02,0.0366237
41.0205,0.0383004
42.021,0.0446637
43.0215,0.0354535
44.022,0.0492839
45.0225,0.0506048
46.023,0.0505385
47.0235,0.0629635
48.024,0.0644593
49.0245,0.0427517
50.025,0.070503
51.0255,0.0422933
52.026,0.0699782
53.0265,0.0512985
54.027,0.0547485
55.0275,0.0667996
56.028,0.0495011
57.0285,0.0622699
58.029,0.0697128
59.0295,0.0697671
60.03,0.0584037
61.0305,0.0590249
62.031,0.0642422
63.0315,0.0659371
64.032,0.0653822
65.0325,0.045677
66.033,0.066486
67.0335,0.0740676
68.034,0.0630118
69.0345,0.0684824
70.035,0.0617693
71.0355,0.073748
72.036,0.0847737
73.0365,0.0860282
74.037,0.0803103
75.0375,0.0683557
76.038,0.060388
77.0385,0.0711001
78.039,0.0754368
79.0395,0.0715947
80.04,0.0794418
81.0405,0.0878799
82.041,0.0776745
83.0415,0.074906
84.042,0.0782837
85.0425,0.0754247
86.043,0.0762631
87.0435,0.0633073
88.044,0.0785551
89.0445,0.0861911
90.045,0.0833442
91.0455,0.0780967
92.046,0.0930007
93.0465,0.0704125
94.047,0.0679275
95.0475,0.0966076
96.048,0.0909982
97.0485,0.0966438
98.049,0.0795744
99.0495,0.0753282
100.05,0.0871863
101.051,0.0896894
102.051,0.0910706
103.052,0.107356
104.052,0.108864
105.053,0.0852019
106.053,0.0817096
107.054,0.0951178
108.054,0.0936039
109.055,0.095347
110.055,0.0919934
111.056,0.0850933
112.056,0.0949127
113.057,0.110444
114.057,0.10241
115.058,0.112519
116.058,0.0987367
117.059,0.0755635
118.059,0.114377
119.06,0.101523
120.06,0.119093
121.061,0.112115
122.061,0.102253
123.062,0.109551
124.062,0.0880367
125.063,0.100251
126.063,0.110703
127.064,0.104551
128.064,0.0859679
129.065,0.0972469
130.065,0.105384
131.066,0.116355
132.066,0.0957149
133.067,0.10776
134.067,0.0914144
135.068,0.108454
136.068,0.131772
137.069,0.089231
138.069,0.105227
139.07,0.108918
140.07,0.112585
141.071,0.10057
142.071,0.105546
143.072,0.107302
144.072,0.113116
145.073,0.105311
146.073,0.113436
147.074,0.113466
148.074,0.112929
149.075,0.0934651
150.075,0.115336
151.076,0.10466
152.076,0.128183
153.077,0.10627
154.077,0.11495
155.078,0.134576
156.078,0.123213
157.079,0.109153
158.079,0.117821
159.08,0.134172
160.08,0.124335
161.081,0.136784
162.081,0.116162
163.082,0.112839
164.082,0.127803
165.083,0.123255
166.083,0.104105
167.084,0.117965
168.084,0.117845
169.085,0.106379
170.085,0.122459
171.086,0.117869
172.086,0.125855
173.087,0.120312
174.087,0.130372
175.088,0.128515
176.088,0.128702
177.089,0.125366
178.089,0.108689
179.09,0.12881
180.09,0.126777
181.091,0.141344
182.091,0.119624
183.092,0.130927
184.092,0.128515
185.093,0.125511
186.093,0.133768
187.094,0.130541
188.094,0.124546
189.095,0.130541
190.095,0.124069
191.096,0.127911
192.096,0.135728
193.097,0.125095
194.097,0.124926
195.098,0.127809
196.098,0.138153
197.099,0.12805
198.099,0.136543
199.1,0.130994
200.1,0.131651
201.101,0.142381
202.101,0.140234
203.102,0.137857
204.102,0.138412
205.103,0.153992
206.103,0.15249
207.104,0.127115
208.104,0.148202
209.105,0.145988
210.105,0.144691
211.106,0.14451
212.106,0.129262
213.107,0.147647
214.107,0.153558
215.108,0.135861
216.108,0.128376
217.109,0.137043
218.109,0.135228
219.11,0.136923
220.11,0.14141
221.111,0.144951
222.111,0.143147
223.112,0.145071
224.112,0.135415
225.113,0.147611
226.113,0.14094
227.114,0.150355
228.114,0.146513
229.115,0.139474
230.115,0.149993
231.116,0.13945
232.116,0.125933
233.117,0.141935
234.117,0.148497
235.118,0.154324
236.118,0.138195
237.119,0.166821
238.119,0.148431
239.12,0.146229
240.12,0.136193
241.121,0.12986
242.121,0.143376
243.122,0.164234
244.122,0.143702
245.123,0.156145
246.123,0.155934
247.124,0.150771
248.124,0.155421
249.125,0.153455
250.125,0.155898
251.126,0.137429
252.126,0.143322
253.127,0.155946
254.127,0.129269
255.128,0.13176
256.128,0.152001
257.129,0.163232
258.129,0.141561
259.13,0.156965
260.13,0.169185
261.131,0.154064
262.131,0.147104
263.132,0.156127
264.132,0.142001
265.133,0.151465
266.133,0.150753
267.134,0.161996
268.134,0.140728
269.135,0.165404
270.135,0.157092
271.136,0.152134
272.136,0.156507
273.137,0.166809
274.137,0.159022
275.138,0.15971
276.138,0.148883
277.139,0.148485
278.139,0.160379
279.14,0.156187
280.14,0.156061
281.141,0.15439
282.141,0.143039
283.142,0.150144
284.142,0.135077
285.143,0.162931
286.143,0.137013
287.144,0.156236
288.144,0.148696
289.145,0.159396
290.145,0.149878
291.146,0.154595
292.146,0.151513
293.147,0.156386
294.147,0.147303
295.148,0.158817
296.148,0.146784
297.149,0.156537
298.149,0.173022
299.15,0.162949
300.15,0.15942
301.151,0.140475
302.151,0.159251
303.152,0.153437
304.152,0.15556
305.153,0.157189
306.153,0.156169
307.154,0.139932
308.154,0.161917
309.155,0.16857
310.155,0.166694
311.156,0.14454
312.156,0.131343
313.157,0.139468
314.157,0.122724
315.158,0.160633
316.158,0.146905
317.159,0.16439
318.159,0.177503
319.16,0.1448
320.16,0.146905
321.161,0.131042
322.161,0.150934
323.162,0.170229
324.162,0.159975
325.163,0.161923
326.163,0.155373
327.164,0.151085
328.164,0.161935
329.165,0.145656
330.165,0.156549
331.166,0.160108
332.166,0.174771
333.167,0.149354
334.167,0.163751
335.168,0.177799
336.168,0.152056
337.169,0.153769
338.169,0.156031
339.17,0.158998
340.17,0.157189
341.171,0.163546
342.171,0.164517
343.172,0.16591
344.172,0.142737
345.173,0.155934
346.173,0.163986
347.174,0.171984
348.174,0.156875
349.175,0.162738
350.175,0.16582
351.176,0.167991
352.176,0.158286
353.177,0.172418
354.177,0.157074
355.178,0.167207
356.178,0.171713
357.179,0.167111
358.179,0.150319
359.18,0.172509
360.18,0.160235
361.181,0.167273
362.181,0.172207
363.182,0.17915
364.182,0.170549
365.183,0.161513
366.183,0.170597
367.184,0.164414
368.184,0.160096
369.185,0.172798
370.185,0.175416
371.186,0.151266
372.186,0.190175
373.187,0.166465
374.187,0.164517
375.188,0.155271
376.188,0.176429
377.189,0.166013
378.189,0.179083
379.19,0.179144
380.19,0.19304
381.191,0.168462
382.191,0.162334
383.192,0.174626
384.192,0.177539
385.193,0.180917
386.193,0.178112
387.194,0.186327
388.194,0.170941
389.195,0.168094
390.195,0.173643
391.196,0.18161
392.196,0.166574
393.197,0.17085
394.197,0.18465
395.198,0.170428
396.198,0.182738
397.199,0.178148
398.199,0.182401
399.2,0.179505
400.2,0.188372
401.201,0.171936
402.201,0.185459
403.202,0.177032
404.202,0.179783
405.203,0.177045
406.203,0.180205
407.204,0.1667
408.204,0.170175
409.205,0.174765
410.205,0.179638
411.206,0.177853
412.206,0.167611
413.207,0.165078
414.207,0.171272
415.208,0.162358
416.208,0.184898
417.209,0.181761
418.209,0.191852
419.21,0.173305
420.21,0.160892
421.211,0.179747
422.211,0.179644
423.212,0.18693
424.212,0.173305
425.213,0.175669
426.213,0.169191
427.214,0.171357
428.214,0.182636
429.215,0.17319
430.215,0.164137
431.216,0.18003
432.216,0.181797
433.217,0.189759
434.217,0.185585
435.218,0.187292
436.218,0.158817
437.219,0.189289
438.219,0.171701
439.22,0.186104
440.22,0.196334
441.221,0.176049
442.221,0.183806
443.222,0.169644
444.222,0.165977
445.223,0.16465
446.223,0.171978
447.224,0.159867
448.224,0.1686
449.225,0.175
450.225,0.156676
451.226,0.166604
452.226,0.178166
453.227,0.174608
454.227,0.182769
455.228,0.18947
456.228,0.17506
457.229,0.173781
458.229,0.185139
459.23,0.16439
460.23,0.175778
461.231,0.187998
462.231,0.187612
463.232,0.173938
464.232,0.19561
465.233,0.193239
466.233,0.186412
467.234,0.181532
468.234,0.172268
469.235,0.16731
470.235,0.177425
471.236,0.187533
472.236,0.187533
473.237,0.178474
474.237,0.173848
475.238,0.186122
476.238,0.195555
477.239,0.186351
478.239,0.175139
479.24,0.185742
480.24,0.193861
481.241,0.212498
482.241,0.174547
483.242,0.182509
484.242,0.171357
485.243,0.181182
486.243,0.167382
487.244,0.181755
488.244,0.190923
489.245,0.184445
490.245,0.196943
491.246,0.179156
492.246,0.17585
493.247,0.17275
494.247,0.196472
495.248,0.187015
496.248,0.172575
497.249,0.19231
498.249,0.188987
499.25,0.171821
500.25,0.180923
501.251,0.175404
502.251,0.178022
503.252,0.188209
504.252,0.195236
505.253,0.185471
506.253,0.18956
507.254,0.208499
508.254,0.196701
509.255,0.199048
510.255,0.184789
511.256,0.184361
512.256,0.193824
513.257,0.188951
514.257,0.190151
515.258,0.172931
516.258,0.187166
517.259,0.183335
518.259,0.153075
519.26,0.185428
520.26,0.18237
521.261,0.193251
522.261,0.182877
523.262,0.177992
524.262,0.169216
525.263,0.164873
526.263,0.167762
527.264,0.185308
528.264,0.178251
529.265,0.183323
530.265,0.174463
531.266,0.185833
532.266,0.188752
533.267,0.196629
534.267,0.187859
535.268,0.17614
536.268,0.210725
537.269,0.193149
538.269,0.185863
539.27,0.196762
540.27,0.185042
541.271,0.189228
542.271,0.190628
543.272,0.206961
544.272,0.189759
545.273,0.183432
546.273,0.187919
547.274,0.190193
548.274,0.19254
549.275,0.174638
550.275,0.184264
551.276,0.172008
552.276,0.187926
553.277,0.183728
554.277,0.200513
555.278,0.19038
556.278,0.195694
557.279,0.181345
558.279,0.196279
559.28,0.188191
560.28,0.197552
561.281,0.185332
562.281,0.189071
563.282,0.190109
564.282,0.189078
565.283,0.186104
566.283,0.171839
567.284,0.181345
568.284,0.178932
569.285,0.187986
570.285,0.197624
571.286,0.195574
572.286,0.186484
573.287,0.185416
574.287,0.204283
575.288,0.201406
576.288,0.186659
577.289,0.182582
578.289,0.179065
579.29,0.183329
580.29,0.193306
581.291,0.183342
582.291,0.185483
583.292,0.187666
584.292,0.189753
585.293,0.183335
586.293,0.180537
587.294,0.213168
588.294,0.189711
589.295,0.197244
590.295,0.200254
591.296,0.180145
592.296,0.184204
593.297,0.19371
594.297,0.184518
595.298,0.181134
596.298,0.190929
597.299,0.199591
598.299,0.190778
599.3,0.19497
600.3,0.179819
601.301,0.182069
602.301,0.204036
603.302,0.199452
604.302,0.185947
605.303,0.195827
606.303,0.175874
607.304,0.197093
608.304,0.176459
609.305,0.183106
610.305,0.185447
611.306,0.192371
612.306,0.184795
613.307,0.185018
614.307,0.177859
615.308,0.192111
616.308,0.191689
617.309,0.176562
618.309,0.192889
619.31,0.194072
620.31,0.2059
621.311,0.182702
622.311,0.188034
623.312,0.190314
624.312,0.201702
625.313,0.213584
626.313,0.198336
627.314,0.200133
628.314,0.200447
629.315,0.188957
630.315,0.188933
631.316,0.195435
632.316,0.191695
633.317,0.194108
634.317,0.191237
635.318,0.190459
636.318,0.181713
637.319,0.194259
638.319,0.205544
639.32,0.198885
640.32,0.192232
641.321,0.194506
642.321,0.180338
643.322,0.210393
644.322,0.214917
645.323,0.188848
646.323,0.199078
647.324,0.199705
648.324,0.175838
649.325,0.19377
650.325,0.197045
651.326,0.206352
652.326,0.203614
653.327,0.194446
654.327,0.183734
655.328,0.226998
656.328,0.191158
657.329,0.195037
658.329,0.18602
659.33,0.188414
660.33,0.206581
661.331,0.1876
662.331,0.202878
663.332,0.188408
664.332,0.198396
665.333,0.179711
666.333,0.200851
667.334,0.206111
668.334,0.188058
669.335,0.193444
670.335,0.205833
671.336,0.194421
672.336,0.212347
673.337,0.185054
674.337,0.191243
675.338,0.202389
676.338,0.204518
677.339,0.204132
678.339,0.195803
679.34,0.194777
680.34,0.190453
681.341,0.205278
682.341,0.190326
683.342,0.206436
684.342,0.213686
685.343,0.191273
686.343,0.211491
687.344,0.215888
688.344,0.194084
689.345,0.201147
690.345,0.184668
691.346,0.182992
692.346,0.195887
693.347,0.191864
694.347,0.198559
695.348,0.209398
696.348,0.208391
697.349,0.202962
698.349,0.18529
699.35,0.195592
700.35,0.18728
701.351,0.198975
702.351,0.191671
703.352,0.201388
704.352,0.205266
705.353,0.194132
706.353,0.190211
707.354,0.211002
708.354,0.202142
709.355,0.198239
710.355,0.193565
711.356,0.194361
712.356,0.196496
713.357,0.201346
714.357,0.192684
715.358,0.195411
716.358,0.203903
717.359,0.190356
718.359,0.197244
719.36,0.19269
720.36,0.201955
721.361,0.201316
722.361,0.198867
723.362,0.198209
724.362,0.195049
725.363,0.19941
726.363,0.209724
727.364,0.19
728.364,0.181267
729.365,0.194753
730.365,0.208541
731.366,0.183565
732.366,0.196557
733.367,0.201792
734.367,0.200417
735.368,0.194295
736.368,0.190127
737.369,0.187407
738.369,0.202027
739.37,0.185453
740.37,0.208258
741.371,0.198053
742.371,0.191569
743.372,0.202136
744.372,0.187859
745.373,0.187461
746.373,0.182955
747.374,0.201919
748.374,0.209874
749.375,0.191412
750.375,0.202281
751.376,0.191291
752.376,0.207257
753.377,0.195712
754.377,0.193342
755.378,0.21666
756.378,0.201605
757.379,0.194446
758.379,0.190525
759.38,0.20444
760.38,0.193336
761.381,0.205984
762.381,0.201436
763.382,0.200399
764.382,0.195911
765.383,0.192467
766.383,0.209935
767.384,0.203734
768.384,0.208198
769.385,0.218162
770.385,0.210453
771.386,0.204066
772.386,0.218717
773.387,0.201418
774.387,0.204464
775.388,0.19728
776.388,0.216111
777.389,0.191068
778.389,0.187316
779.39,0.212745
780.39,0.197811
781.391,0.199259
782.391,0.206255
783.392,0.212498
784.392,0.206388
785.393,0.207588
786.393,0.201919
787.394,0.188414
788.394,0.21286
789.395,0.216961
790.395,0.205284
791.396,0.196092
792.396,0.197196
793.397,0.194042
794.397,0.192757
795.398,0.193535
796.398,0.207727
797.399,0.204006
798.399,0.207516
799.4,0.196382
800.4,0.185827
801.401,0.200749
802.401,0.18947
803.402,0.194777
804.402,0.205435
805.403,0.208252
806.403,0.21099
807.404,0.224585
808.404,0.202848
809.405,0.194198
810.405,0.194289
811.406,0.197069
812.406,0.202612
813.407,0.190977
814.407,0.194958
815.408,0.189958
816.408,0.196828
817.409,0.199663
818.409,0.203746
819.41,0.199591
820.41,0.192799
821.411,0.18693
822.411,0.215351
823.412,0.204024
824.412,0.218415
825.413,0.21561
826.413,0.206141
827.414,0.191044
828.414,0.200387
829.415,0.19415
830.415,0.196237
831.416,0.202293
832.416,0.217094
833.417,0.205134
834.417,0.222776
835.418,0.206231
836.418,0.19596
837.419,0.207667
838.419,0.203487
839.42,0.200399
840.42,0.205701
841.421,0.20716
842.421,0.196279
843.422,0.192709
844.422,0.198306
845.423,0.207335
846.423,0.192727
847.424,0.204651
848.424,0.203113
849.425,0.193848
850.425,0.204265
851.426,0.202468
852.426,0.198408
853.427,0.206521
854.427,0.216594
855.428,0.219537
856.428,0.224857
857.429,0.217293
858.429,0.207287
859.43,0.203077
860.43,0.210864
861.431,0.192727
862.431,0.211159
863.432,0.188565
864.432,0.206171
865.433,0.207407
866.433,0.210851
867.434,0.20684
868.434,0.194017
869.435,0.201671
870.435,0.195344
871.436,0.203837
872.436,0.204524
873.437,0.216491
874.437,0.218632
875.438,0.205948
876.438,0.198451
877.439,0.198891
878.439,0.196321
879.44,0.209712
880.44,0.203143
881.441,0.200875
882.441,0.18196
883.442,0.205851
884.442,0.201702
885.443,0.19193
886.443,0.208312
887.444,0.18836
888.444,0.206183
889.445,0.208638
890.445,0.202076
891.446,0.206672
892.446,0.207021
893.447,0.207685
894.447,0.20438
895.448,0.210405
896.448,0.208155
897.449,0.199922
898.449,0.220345
899.45,0.229429
900.45,0.212203
901.451,0.19947
902.451,0.18833
903.452,0.195067
904.452,0.204464
905.453,0.22517
906.453,0.229628
907.454,0.209983
908.454,0.217655
909.455,0.203535
910.455,0.209036
911.456,0.191297
912.456,0.190073
913.457,0.202534
914.457,0.210652
915.458,0.202106
916.458,0.208644
917.459,0.198095
918.459,0.194838
919.46,0.218886
920.46,0.209163
921.461,0.223349
922.461,0.200495
923.462,0.211135
924.462,0.205266
925.463,0.224827
926.463,0.211931
927.464,0.219947
928.464,0.216569
929.465,0.216877
930.465,0.192009
931.466,0.206388
932.466,0.21093
933.467,0.203861
934.467,0.216509
935.468,0.21748
936.468,0.217999
937.469,0.221238
938.469,0.212215
939.47,0.198535
940.47,0.206219
941.471,0.208161
942.471,0.21011
943.472,0.194922
944.472,0.198583
945.473,0.221461
946.473,0.212649
947.474,0.219109
948.474,0.195374
949.475,0.211087
950.475,0.213403
951.476,0.219591
952.476,0.209096
953.477,0.221799
954.477,0.208336
955.478,0.216238
956.478,0.214567
957.479,0.212914
958.479,0.206545
959.48,0.207824
960.48,0.214567
961.481,0.209609
962.481,0.208813
963.482,0.201026
964.482,0.215514
965.483,0.212649
966.483,0.191514
967.484,0.199585
968.484,0.208638
969.485,0.208258
970.485,0.214814
971.486,0.202377
972.486,0.203547
973.487,0.234531
974.487,0.214754
975.488,0.225394
976.488,0.215641
977.489,0.217197
978.489,0.222685
979.49,0.218276
980.49,0.201255
981.491,0.217034
982.491,0.213258
983.492,0.217981
984.492,0.20684
985.493,0.215369
986.493,0.216286
987.494,0.222486
988.494,0.220086
989.495,0.223994
990.495,0.216015
991.496,0.201846
992.496,0.205194
993.497,0.216672
994.497,0.216232
995.498,0.208644
996.498,0.198583
997.499,0.215068
998.499,0.211907
999.5,0.211497
1000,0.21327