File: silicates_UV_vis/Allylsilicates_plot/is_2_11_allyl_phenylcoumarine.csv
is_2_11_7uM,,is_2_11_15uM1,,is_2_11_31uM,,is_2_11_62uM,,is_2_11_125uM,,is_2_11_250uM,,
Wavelength (nm),Abs,Wavelength (nm),Abs,Wavelength (nm),Abs,Wavelength (nm),Abs,Wavelength (nm),Abs,Wavelength (nm),Abs,
799.953,-0.000571703,799.953,0.000853807,799.953,0.0010176,799.953,0.00355942,799.953,0.00600472,799.953,0.0138416,
798.565,0.000941016,798.565,0.00203864,798.565,0.00168819,798.565,0.00427212,798.565,0.00794952,798.565,0.0149984,
797.037,0.000428754,797.037,0.00186996,797.037,0.00203903,797.037,0.00378331,797.037,0.00734907,797.037,0.0146488,
795.509,0.000601566,795.509,0.000593349,795.509,0.00163009,795.509,0.00322324,795.509,0.00692613,795.509,0.0141528,
793.979,0.00034657,793.979,0.000704073,793.979,0.0011939,793.979,0.0025181,793.979,0.00709192,793.979,0.0148293,
792.449,0.000550944,792.449,0.000857205,792.449,0.0011954,792.449,0.00321513,792.449,0.00644021,792.449,0.0143898,
791.057,-0.000677683,791.057,0.000551384,791.057,0.000901638,791.057,0.00327783,791.057,0.00633196,791.057,0.0143028,
789.524,-0.000319729,789.524,0.000265827,789.524,0.000403102,789.524,0.00230842,789.524,0.00590041,789.524,0.0148673,
787.991,-0.00104464,787.991,-7.29978e-06,787.991,-0.000337991,787.991,0.0019185,787.991,0.00599126,787.991,0.0141845,
786.457,-0.00157009,786.457,-0.000182613,786.457,0.000276395,786.457,0.00215387,786.457,0.00571317,786.457,0.0143389,
785.062,-0.00137372,785.062,-0.000325886,785.062,-5.09406e-05,785.062,0.00206769,785.062,0.00563163,785.062,0.0140294,
783.526,0.000385717,783.526,-0.00071216,783.526,-0.000114349,783.526,0.0021283,783.526,0.00530991,783.526,0.0140846,
781.989,-0.00174679,781.989,-0.000596417,781.989,-0.000249366,781.989,0.0020255,781.989,0.00520178,781.989,0.0144245,
780.451,-0.0012947,780.451,-0.000453286,780.451,-0.00106587,780.451,0.00217952,780.451,0.00500144,780.451,0.0144981,
779.053,-0.00170471,779.053,-0.000851796,779.053,-0.000290085,779.053,0.00167107,779.053,0.00502259,779.053,0.0143756,
777.513,-0.00198717,777.513,-0.00108905,777.513,-0.000174022,777.513,0.00200517,777.513,0.00500269,777.513,0.0151484,
775.973,-0.00147259,775.973,-0.0009746,775.973,-0.00101391,775.973,0.00187646,775.973,0.00441122,775.973,0.0149848,
774.432,-0.00233824,774.432,-0.00161389,774.432,-0.000912556,774.432,0.00166904,774.432,0.00436689,774.432,0.0144148,
773.03,-0.00248291,773.03,-0.00204318,773.03,-0.000936114,773.03,0.00194567,773.03,0.00399218,773.03,0.0148658,
771.487,-0.0023352,771.487,-0.00179082,771.487,-0.0012915,771.487,0.00162139,771.487,0.00439715,771.487,0.0147768,
769.943,-0.00251426,769.943,-0.0017308,769.943,-0.00106566,769.943,0.000917539,769.943,0.00414634,769.943,0.0145449,
768.539,-0.00275612,768.539,-0.00204524,768.539,-0.00128654,768.539,0.000975858,768.539,0.00422269,768.539,0.0146343,
766.993,-0.00276563,766.993,-0.00243833,766.993,-0.00149539,766.993,0.00119506,766.993,0.00405493,766.993,0.0145336,
765.447,-0.00299624,765.447,-0.00242253,765.447,-0.0014989,765.447,0.00136143,765.447,0.00384141,765.447,0.0140685,
764.04,-0.00334172,764.04,-0.00214015,764.04,-0.00164984,764.04,0.000547574,764.04,0.00383475,764.04,0.0141613,
762.492,-0.00348021,762.492,-0.00260443,762.492,-0.00214813,762.492,0.000381727,762.492,0.00331056,762.492,0.0139377,
760.943,-0.00380468,760.943,-0.0027556,760.943,-0.00233072,760.943,0.000343461,760.943,0.00344377,760.943,0.0135874,
759.534,-0.00337794,759.534,-0.00317585,759.534,-0.00254149,759.534,0.000133489,759.534,0.00301203,759.534,0.0131432,
757.983,-0.00422171,757.983,-0.00318896,757.983,-0.0025401,757.983,-0.000674323,757.983,0.0027918,757.983,0.0131893,
756.432,-0.00458128,756.432,-0.00372163,756.432,-0.0031407,756.432,-7.92038e-05,756.432,0.00298549,756.432,0.0125934,
755.02,-0.00458989,755.02,-0.00366712,755.02,-0.00324086,755.02,-0.000657937,755.02,0.00236641,755.02,0.0126892,
753.467,-0.0051763,753.467,-0.00416551,753.467,-0.00360407,753.467,-0.000998929,753.467,0.00182888,753.467,0.0123069,
752.054,-0.00519845,752.054,-0.00451411,752.054,-0.00399508,752.054,-0.00164519,752.054,0.00204309,752.054,0.0113947,
750.499,-0.00524362,750.499,-0.00475476,750.499,-0.00420259,750.499,-0.00165984,750.499,0.0017108,750.499,0.0114596,
748.943,-0.00548488,748.943,-0.0051035,748.943,-0.00447256,748.943,-0.00205926,748.943,0.00125243,748.943,0.0111631,
747.528,-0.00589786,747.528,-0.0052051,747.528,-0.00466769,747.528,-0.00277973,747.528,0.000841513,747.528,0.0105028,
745.971,-0.00583948,745.971,-0.0056119,745.971,-0.00523615,745.971,-0.00272731,745.971,0.000807357,745.971,0.0102008,
744.554,-0.00620485,744.554,-0.00581986,744.554,-0.00544991,744.554,-0.0032329,744.554,0.000503645,744.554,0.00985624,
742.995,-0.00698192,742.995,-0.0061264,742.995,-0.00538375,742.995,-0.00355822,742.995,0.000286885,742.995,0.00945454,
741.435,-0.00729523,741.435,-0.00739464,741.435,-0.00676483,741.435,-0.00452328,741.435,-0.00079356,741.435,0.00837614,
740.016,-0.00807949,740.016,-0.00775775,740.016,-0.00689912,740.016,-0.0047395,740.016,-0.00128319,740.016,0.0080952,
738.454,-0.00779945,738.454,-0.00745047,738.454,-0.00666777,738.454,-0.00461622,738.454,-0.000852261,738.454,0.00814036,
737.034,-0.00876184,737.034,-0.00810993,737.034,-0.00729609,737.034,-0.0055793,737.034,-0.00163803,737.034,0.00700676,
735.47,-0.00855072,735.47,-0.00815134,735.47,-0.00721993,735.47,-0.00537322,735.47,-0.00167609,735.47,0.00723527,
734.048,-0.00832762,734.048,-0.00795029,734.048,-0.00706475,734.048,-0.00513154,734.048,-0.00149302,734.048,0.00719537,
732.483,-0.00828002,732.483,-0.0076046,732.483,-0.00698655,732.483,-0.00495309,732.483,-0.00136288,732.483,0.00730618,
731.06,-0.00910277,731.06,-0.00805764,731.06,-0.00729762,731.06,-0.00559028,731.06,-0.00186857,731.06,0.00697451,
729.493,-0.00961898,729.493,-0.0089297,729.493,-0.00804229,729.493,-0.00614156,729.493,-0.00277284,729.493,0.00615034,
728.068,-0.0107725,728.068,-0.00999217,728.068,-0.0087967,728.068,-0.00682727,728.068,-0.00379041,728.068,0.00512476,
726.5,-0.0119621,726.5,-0.0110461,726.5,-0.0102476,726.5,-0.00813737,726.5,-0.00490329,726.5,0.00370967,
724.931,-0.0130477,724.931,-0.0122117,724.931,-0.0112326,724.931,-0.00912366,724.931,-0.00601092,724.931,0.00232646,
723.504,-0.0134594,723.504,-0.012722,723.504,-0.0121388,723.504,-0.00990377,723.504,-0.00688873,723.504,0.00182951,
721.933,-0.0141677,721.933,-0.0131711,721.933,-0.0127093,721.933,-0.0104752,721.933,-0.00734756,721.933,0.00119428,
720.505,-0.0147228,720.505,-0.0136165,720.505,-0.0129672,720.505,-0.0106261,720.505,-0.00784247,720.505,0.000377789,
718.932,-0.0144749,718.932,-0.0138777,718.932,-0.0132149,718.932,-0.0107513,718.932,-0.00810759,718.932,0.000455547,
717.502,-0.0145844,717.502,-0.0138726,717.502,-0.0129825,717.502,-0.0106361,717.502,-0.00803436,717.502,0.000273546,
715.928,-0.0141943,715.928,-0.013499,715.928,-0.0125931,715.928,-0.0101173,715.928,-0.00751632,715.928,0.000614709,
714.497,-0.0135846,714.497,-0.0128049,714.497,-0.0120401,714.497,-0.00951034,714.497,-0.00705232,714.497,0.0012973,
713.065,-0.0130736,713.065,-0.0121169,713.065,-0.011008,713.065,-0.00894157,713.065,-0.00615315,713.065,0.0025666,
711.488,-0.0120456,711.488,-0.0113093,711.488,-0.0100227,711.488,-0.00762556,711.488,-0.00522551,711.488,0.00353267,
710.055,-0.0105625,710.055,-0.00971361,710.055,-0.00862519,710.055,-0.00638865,710.055,-0.00379831,710.055,0.00521595,
708.477,-0.00890105,708.477,-0.00789585,708.477,-0.00697851,708.477,-0.00453071,708.477,-0.00193217,708.477,0.00710876,
707.042,-0.00719258,707.042,-0.00654075,707.042,-0.00538002,707.042,-0.00314682,707.042,-0.000320816,707.042,0.00889095,
705.463,-0.00493932,705.463,-0.00413049,705.463,-0.00285339,705.463,-0.00070296,705.463,0.00191702,705.463,0.011463,
704.026,-0.00324914,704.026,-0.00243735,704.026,-0.00109923,704.026,0.000972978,704.026,0.00376889,704.026,0.0136221,
702.445,-0.00139575,702.445,-0.000309486,702.445,0.000909108,702.445,0.00292985,702.445,0.00596837,702.445,0.0159048,
701.007,0.000823773,701.007,0.00186972,701.007,0.00288193,701.007,0.00544446,701.007,0.00799864,701.007,0.0183343,
699.569,0.00272852,699.569,0.00395145,699.569,0.00483731,699.569,0.00724688,699.569,0.0100187,699.569,0.0201638,
697.985,0.00433729,697.985,0.00536397,697.985,0.00663299,697.985,0.00900975,697.985,0.0118049,697.985,0.021995,
696.545,0.00620863,696.545,0.00734643,696.545,0.00849111,696.545,0.0107899,696.545,0.0137839,696.545,0.02436,
694.961,0.0079124,694.961,0.00925402,694.961,0.0104601,694.961,0.0124478,694.961,0.0157158,694.961,0.0259783,
693.519,0.00937285,693.519,0.0105321,693.519,0.0116429,693.519,0.0140733,693.519,0.0173109,693.519,0.0271523,
691.933,0.0112208,691.933,0.0121947,691.933,0.0129641,691.933,0.0156156,691.933,0.0195113,691.933,0.0289157,
690.49,0.011991,690.49,0.0128736,690.49,0.0139117,690.49,0.0165146,690.49,0.0200419,690.49,0.0296505,
689.046,0.0131861,689.046,0.0144796,689.046,0.0148058,689.046,0.0173219,689.046,0.0214817,689.046,0.0308183,
687.458,0.0140484,687.458,0.0153657,687.458,0.0162472,687.458,0.0185063,687.458,0.0227677,687.458,0.0314493,
686.013,0.01556,686.013,0.0167216,686.013,0.0179573,686.013,0.0198161,686.013,0.0238813,686.013,0.0332833,
684.567,0.0159774,684.567,0.0165766,684.567,0.0175711,684.567,0.0197976,684.567,0.0237518,684.567,0.0334076,
682.976,0.0167917,682.976,0.0172428,682.976,0.0184033,682.976,0.0205577,682.976,0.0246528,682.976,0.0338159,
681.53,0.0168783,681.53,0.0181305,681.53,0.0190713,681.53,0.0209475,681.53,0.0251661,681.53,0.0344857,
679.937,0.017562,679.937,0.0187185,679.937,0.0193975,679.937,0.0214711,679.937,0.0259504,679.937,0.0352231,
678.489,0.0179063,678.489,0.0190883,678.489,0.0199264,678.489,0.0219049,678.489,0.026594,678.489,0.0352554,
677.04,0.0185863,677.04,0.0191939,677.04,0.0202685,677.04,0.0221349,677.04,0.0268198,677.04,0.0356876,
675.445,0.0185632,675.445,0.0195547,675.445,0.0207141,675.445,0.0225465,675.445,0.0271793,675.445,0.0356723,
673.995,0.0187646,673.995,0.019698,673.995,0.0208742,673.995,0.0226967,673.995,0.0274932,673.995,0.0357247,
672.544,0.0188117,672.544,0.0199321,672.544,0.0213083,672.544,0.0228422,672.544,0.0277146,672.544,0.035978,
670.947,0.0190885,670.947,0.0200654,670.947,0.0210177,670.947,0.0232645,670.947,0.0277178,670.947,0.0356542,
669.495,0.0199577,669.495,0.0206121,669.495,0.0218771,669.495,0.0239208,669.495,0.0282674,669.495,0.0365057,
668.042,0.0190297,668.042,0.0198419,668.042,0.020757,668.042,0.0234651,668.042,0.0276444,668.042,0.0352884,
666.443,0.0177168,666.443,0.0187157,666.443,0.0199974,666.443,0.0224932,666.443,0.0263445,666.443,0.0340799,
664.988,0.0173891,664.988,0.018397,664.988,0.0190743,664.988,0.0217241,664.988,0.0255557,664.988,0.0339536,
663.533,0.0169788,663.533,0.0178752,663.533,0.0191488,663.533,0.0213621,663.533,0.025528,663.533,0.0336983,
661.932,0.0169621,661.932,0.0177528,661.932,0.0187817,661.932,0.0212916,661.932,0.0254054,661.932,0.0334365,
660.476,0.0165869,660.476,0.0174421,660.476,0.0186095,660.476,0.0210123,660.476,0.0248921,660.476,0.0334402,
659.019,0.0166586,659.019,0.0175698,659.019,0.0183611,659.019,0.0207291,659.019,0.02502,659.019,0.0333346,
657.561,0.0164828,657.561,0.0171475,657.561,0.0182672,657.561,0.021044,657.561,0.0248814,657.561,0.0336145,
655.957,0.0166778,655.957,0.0173015,655.957,0.0181441,655.957,0.0210612,655.957,0.0251247,655.957,0.0339473,
654.498,0.0164607,654.498,0.0174933,654.498,0.0180599,654.498,0.0209274,654.498,0.0250239,654.498,0.0338487,
653.039,0.0165103,653.039,0.0175494,653.039,0.0180947,653.039,0.020987,653.039,0.0248652,653.039,0.0340374,
651.433,0.016316,651.433,0.0174172,651.433,0.018208,651.433,0.0205241,651.433,0.0247626,651.433,0.0341202,
649.972,0.0169312,649.972,0.0177316,649.972,0.0183653,649.972,0.0213871,649.972,0.0251343,649.972,0.0350256,
648.51,0.0160783,648.51,0.0173846,648.51,0.0181513,648.51,0.0206842,648.51,0.0250014,648.51,0.0343959,
647.048,0.0162467,647.048,0.0177403,647.048,0.0180815,647.048,0.020827,647.048,0.0249863,647.048,0.0350532,
645.439,0.0164245,645.439,0.0172913,645.439,0.0182253,645.439,0.0204855,645.439,0.02519,645.439,0.0351059,
643.976,0.0169101,643.976,0.0177773,643.976,0.0188127,643.976,0.0212071,643.976,0.0252868,643.976,0.0358253,
642.512,0.0159269,642.512,0.0176265,642.512,0.0183238,642.512,0.0207124,642.512,0.0251125,642.512,0.0353264,
641.047,0.01623,641.047,0.017202,641.047,0.0184249,641.047,0.0206514,641.047,0.0249098,641.047,0.0357647,
639.435,0.0164598,639.435,0.0169731,639.435,0.0185268,639.435,0.0203868,639.435,0.0249502,639.435,0.0359301,
637.969,0.0161156,637.969,0.0174421,637.969,0.0185188,637.969,0.0206676,637.969,0.0247851,637.969,0.0362789,
636.503,0.0162015,636.503,0.0175019,636.503,0.0185293,636.503,0.0204431,636.503,0.0248007,636.503,0.03684,
635.035,0.0163147,635.035,0.0174758,635.035,0.0188592,635.035,0.0205772,635.035,0.0249097,635.035,0.0368582,
633.568,0.0163218,633.568,0.0175656,633.568,0.0187399,633.568,0.0206169,633.568,0.0248739,633.568,0.0368387,
631.952,0.0165031,631.952,0.0175447,631.952,0.0188816,631.952,0.0205977,631.952,0.0249794,631.952,0.0371449,
630.483,0.0162975,630.483,0.0174726,630.483,0.0185126,630.483,0.0204051,630.483,0.0249851,630.483,0.0370926,
629.013,0.0164322,629.013,0.0176351,629.013,0.0185402,629.013,0.020612,629.013,0.0248015,629.013,0.0374006,
627.543,0.0164427,627.543,0.0178258,627.543,0.0188122,627.543,0.0205339,627.543,0.0250539,627.543,0.0372508,
626.072,0.0165339,626.072,0.0176358,626.072,0.018743,626.072,0.020717,626.072,0.0251846,626.072,0.0375319,
624.454,0.0166954,624.454,0.0177059,624.454,0.0188334,624.454,0.0209187,624.454,0.025244,624.454,0.037624,
622.981,0.0164854,622.981,0.0178801,622.981,0.0188365,622.981,0.0206616,622.981,0.0250884,622.981,0.0375438,
621.509,0.0165859,621.509,0.0179407,621.509,0.0187282,621.509,0.0209261,621.509,0.0252152,621.509,0.0374285,
620.035,0.0163931,620.035,0.0177695,620.035,0.0186866,620.035,0.0206559,620.035,0.0251773,620.035,0.0373999,
618.561,0.0163538,618.561,0.0176643,618.561,0.0183884,618.561,0.0208256,618.561,0.02531383,618.561,0.0370982,
616.939,0.0162053,616.939,0.0174663,616.939,0.0185385,616.939,0.0207826,616.939,0.0250135,616.939,0.0368706,
615.464,0.0161303,615.464,0.0173006,615.464,0.0186042,615.464,0.0205853,615.464,0.0249118,615.464,0.0366975,
613.988,0.0159541,613.988,0.0173973,613.988,0.0183325,613.988,0.0205537,613.988,0.0245629,613.988,0.0362855,
612.512,0.0160626,612.512,0.0172215,612.512,0.0181736,612.512,0.0207182,612.512,0.024701,612.512,0.0363414,
611.035,0.0157538,611.035,0.0169468,611.035,0.0179219,611.035,0.0206678,611.035,0.0245676,611.035,0.035823,
609.557,0.0158643,609.557,0.0171111,609.557,0.0178654,609.557,0.0208006,609.557,0.0248338,609.557,0.035634,
607.931,0.0157689,607.931,0.016713,607.931,0.018006,607.931,0.0204982,607.931,0.0246734,607.931,0.035345,
606.453,0.0158521,606.453,0.0169716,606.453,0.0180508,606.453,0.0206287,606.453,0.0244117,606.453,0.0352711,
604.973,0.0158992,604.973,0.0168128,604.973,0.0178847,604.973,0.0206951,604.973,0.0247705,604.973,0.0352757,
603.493,0.015843,603.493,0.016938,603.493,0.0179586,603.493,0.0207074,603.493,0.0246007,603.493,0.0350824,
602.013,0.0156034,602.013,0.0167174,602.013,0.017821,602.013,0.0204746,602.013,0.0244593,602.013,0.034494,
600.531,0.015642,600.531,0.0165387,600.531,0.0177563,600.531,0.0205784,600.531,0.0243836,600.531,0.0344977,
599.05,0.0153846,599.05,0.0164651,599.05,0.0177607,599.05,0.0203536,599.05,0.0241495,599.05,0.0343721,
597.568,0.0151932,597.568,0.016305,597.568,0.0173978,597.568,0.0203363,597.568,0.0239989,597.568,0.0342947,
595.936,0.0153577,595.936,0.0164649,595.936,0.0174539,595.936,0.0202539,595.936,0.0240751,595.936,0.0340673,
594.453,0.0150504,594.453,0.0164813,594.453,0.0173741,594.453,0.0201693,594.453,0.0240287,594.453,0.0342579,
592.969,0.0148912,592.969,0.0162882,592.969,0.0173773,592.969,0.0200182,592.969,0.0238432,592.969,0.0342649,
591.484,0.0150181,591.484,0.0161521,591.484,0.0169763,591.484,0.0201272,591.484,0.0239406,591.484,0.0342999,
589.999,0.0149173,589.999,0.0158505,589.999,0.0170464,589.999,0.0197362,589.999,0.0241407,589.999,0.0347641,
588.513,0.0145679,588.513,0.0156351,588.513,0.0168986,588.513,0.0196518,588.513,0.0239124,588.513,0.0350029,
587.027,0.0144643,587.027,0.0156916,587.027,0.0168723,587.027,0.0196491,587.027,0.0239079,587.027,0.0351548,
585.54,0.0142202,585.54,0.0153905,585.54,0.0166863,585.54,0.0192473,585.54,0.0240158,585.54,0.0353174,
584.052,0.014124,584.052,0.0152631,584.052,0.0165651,584.052,0.0192984,584.052,0.0237448,584.052,0.0356411,
582.564,0.0138992,582.564,0.0150504,582.564,0.0165326,582.564,0.0192129,582.564,0.0236318,582.564,0.0352952,
580.927,0.0136589,580.927,0.0150983,580.927,0.0158871,580.927,0.0187241,580.927,0.0234919,580.927,0.0355586,
579.438,0.0133983,579.438,0.0144565,579.438,0.015716,579.438,0.0184751,579.438,0.0233005,579.438,0.0352914,
577.948,0.0131925,577.948,0.0143643,577.948,0.0154888,577.948,0.0182176,577.948,0.0231881,577.948,0.0351924,
576.458,0.0128471,576.458,0.0140716,576.458,0.0152623,576.458,0.0182217,576.458,0.0230971,576.458,0.0346593,
574.967,0.0126691,574.967,0.0139857,574.967,0.0148848,574.967,0.0177548,574.967,0.0228701,574.967,0.0345246,
573.475,0.0124061,573.475,0.0137223,573.475,0.0145663,573.475,0.0174595,573.475,0.0229199,573.475,0.0341577,
571.983,0.0120332,571.983,0.0135487,571.983,0.0143246,571.983,0.0171905,571.983,0.0227779,571.983,0.0337046,
570.491,0.0116727,570.491,0.0128761,570.491,0.0139746,570.491,0.0169629,570.491,0.02254,570.491,0.033199,
568.998,0.0116344,568.998,0.0126468,568.998,0.0135046,568.998,0.0167423,568.998,0.0224712,568.998,0.032959,
567.504,0.0108902,567.504,0.0121447,567.504,0.0131501,567.504,0.0163054,567.504,0.0221288,567.504,0.0326251,
566.01,0.0106992,566.01,0.0119795,566.01,0.0127631,566.01,0.0159646,566.01,0.0220472,566.01,0.0326155,
564.515,0.010169,564.515,0.0113559,564.515,0.0122684,564.515,0.0154993,564.515,0.0216392,564.515,0.0321282,
563.02,0.00996673,563.02,0.0111658,563.02,0.0121017,563.02,0.0152232,563.02,0.0215353,563.02,0.0320455,
561.524,0.00973919,561.524,0.01081,561.524,0.0116302,561.524,0.0147444,561.524,0.0211535,561.524,0.0320425,
560.028,0.00922044,560.028,0.01023,560.028,0.0111213,560.028,0.0144073,560.028,0.0208489,560.028,0.0314958,
558.531,0.00877643,558.531,0.00989694,558.531,0.0107649,558.531,0.0139048,558.531,0.0204287,558.531,0.0314081,
557.033,0.00827215,557.033,0.00957723,557.033,0.0104558,557.033,0.0137248,557.033,0.0201307,557.033,0.0312395,
555.535,0.00786511,555.535,0.00906943,555.535,0.00995455,555.535,0.0133739,555.535,0.0194745,555.535,0.0307021,
554.037,0.00723685,554.037,0.00853636,554.037,0.00952777,554.037,0.012974,554.037,0.0191306,554.037,0.0300647,
552.538,0.0069547,552.538,0.00816349,552.538,0.00911905,552.538,0.012797,552.538,0.0186796,552.538,0.0297543,
551.038,0.00659898,551.038,0.00754989,551.038,0.00875096,551.038,0.0125357,551.038,0.0182459,551.038,0.0290164,
549.538,0.00604268,549.538,0.00714039,549.538,0.00829423,549.538,0.0122753,549.538,0.0177485,549.538,0.0283709,
548.038,0.00554332,548.038,0.00661622,548.038,0.0079864,548.038,0.0116876,548.038,0.0172968,548.038,0.0278423,
546.536,0.00515764,546.536,0.0063199,546.536,0.00765547,546.536,0.0116083,546.536,0.0170175,546.536,0.0274742,
545.035,0.00493961,545.035,0.00617504,545.035,0.00746622,545.035,0.0116726,545.035,0.016856,545.035,0.0272053,
543.533,0.00469758,543.533,0.00597383,543.533,0.00733888,543.533,0.0117846,543.533,0.016593,543.533,0.02699,
542.03,0.00457474,542.03,0.00567533,542.03,0.0072857,542.03,0.0116922,542.03,0.0164788,542.03,0.0265948,
540.527,0.00462918,540.527,0.00569576,540.527,0.00732132,540.527,0.0117956,540.527,0.0166997,540.527,0.0265942,
539.023,0.00443933,539.023,0.00557628,539.023,0.00740115,539.023,0.0117275,539.023,0.0164118,539.023,0.0263265,
537.518,0.00468175,537.518,0.0059404,537.518,0.0075092,537.518,0.0121636,537.518,0.0168658,537.518,0.0266616,
536.014,0.00523832,536.014,0.00650343,536.014,0.00827769,536.014,0.012608,536.014,0.0173065,536.014,0.0274202,
534.508,0.00575023,534.508,0.00689223,534.508,0.00872019,534.508,0.0129541,534.508,0.0177519,534.508,0.0277853,
533.003,0.00641373,533.003,0.00760471,533.003,0.00952139,533.003,0.0136938,533.003,0.0184925,533.003,0.0288377,
531.496,0.00726609,531.496,0.00834629,531.496,0.0102574,531.496,0.0144877,531.496,0.0192689,531.496,0.0296994,
529.989,0.00805246,529.989,0.00923305,529.989,0.0113732,529.989,0.0153932,529.989,0.0203574,529.989,0.0306936,
528.482,0.00908442,528.482,0.0107014,528.482,0.0123271,528.482,0.0164838,528.482,0.0214789,528.482,0.0319553,
526.974,0.0103453,526.974,0.0117115,526.974,0.0134836,526.974,0.0176178,526.974,0.0226606,526.974,0.0333085,
525.466,0.0118461,525.466,0.0129454,525.466,0.014961,525.466,0.0191865,525.466,0.0241063,525.466,0.0350643,
523.957,0.0131577,523.957,0.0144941,523.957,0.0166123,523.957,0.0205544,523.957,0.0254744,523.957,0.0367427,
522.447,0.0146511,522.447,0.0158093,522.447,0.0179722,522.447,0.0220334,522.447,0.0269073,522.447,0.0382879,
520.937,0.0158103,520.937,0.0173623,520.937,0.0194961,520.937,0.0232232,520.937,0.0283449,520.937,0.0396353,
519.427,0.0169364,519.427,0.0183718,519.427,0.0208146,519.427,0.0243089,519.427,0.0296739,519.427,0.0408384,
518.067,0.0182835,518.067,0.0195992,518.067,0.0222137,518.067,0.025783,518.067,0.031315,518.067,0.0424144,
516.556,0.0199046,516.556,0.0209878,516.556,0.0233101,516.556,0.0272201,516.556,0.0328953,516.556,0.0437644,
515.044,0.0210148,515.044,0.0222018,515.044,0.0243361,515.044,0.0281279,515.044,0.0340248,515.044,0.0453727,
513.532,0.0220638,513.532,0.0229089,513.532,0.0251581,513.532,0.029203,513.532,0.0351291,513.532,0.0463015,
512.019,0.0232997,512.019,0.024117,512.019,0.0262905,512.019,0.0304335,512.019,0.0363025,512.019,0.0475416,
510.505,0.0240278,510.505,0.0251455,510.505,0.0273703,510.505,0.0314588,510.505,0.0373503,510.505,0.0483991,
508.992,0.0250006,508.992,0.0260631,508.992,0.0283757,508.992,0.0319005,508.992,0.0379616,508.992,0.0491687,
507.477,0.0257465,507.477,0.0268148,507.477,0.0287706,507.477,0.0325298,507.477,0.0390078,507.477,0.0505359,
505.962,0.026293,505.962,0.0274475,505.962,0.0294639,505.962,0.0329691,505.962,0.0393388,505.962,0.0511308,
504.447,0.0267566,504.447,0.0278336,504.447,0.0299561,504.447,0.0333274,504.447,0.0399046,504.447,0.0515932,
502.931,0.0271606,502.931,0.0280963,502.931,0.0303736,502.931,0.033764,502.931,0.0404121,502.931,0.0523736,
501.567,0.0274459,501.567,0.0284193,501.567,0.0307243,501.567,0.0339542,501.567,0.0406728,501.567,0.0527711,
500.05,0.0274908,500.05,0.028465,500.05,0.0308317,500.05,0.0340422,500.05,0.0408474,500.05,0.0534668,
498.533,0.0276674,498.533,0.0289948,498.533,0.0310275,498.533,0.0342087,498.533,0.0411092,498.533,0.053689,
497.015,0.0278281,497.015,0.0289072,497.015,0.0313174,497.015,0.034239,497.015,0.0411312,497.015,0.0540533,
495.497,0.0274883,495.497,0.0290235,495.497,0.0313525,495.497,0.0345399,495.497,0.0413109,495.497,0.0541673,
493.978,0.0276301,493.978,0.0286964,493.978,0.0310002,493.978,0.0343402,493.978,0.0410766,493.978,0.054184,
492.459,0.0273176,492.459,0.0285363,492.459,0.0307452,492.459,0.0342982,492.459,0.0409266,492.459,0.0543988,
490.94,0.0272862,490.94,0.0286185,490.94,0.0308887,490.94,0.0343823,490.94,0.0411792,490.94,0.0551442,
489.572,0.0265239,489.572,0.0281105,489.572,0.030288,489.572,0.0338153,489.572,0.0406897,489.572,0.0549134,
488.051,0.0261571,488.051,0.027892,488.051,0.0296781,488.051,0.0335059,488.051,0.040389,488.051,0.055127,
486.53,0.0258768,486.53,0.0277302,486.53,0.0296436,486.53,0.0331346,486.53,0.0405109,486.53,0.0550588,
485.009,0.0256456,485.009,0.0272414,485.009,0.0289743,485.009,0.032772,485.009,0.0403032,485.009,0.0551427,
483.487,0.0252177,483.487,0.027028,483.487,0.0287386,483.487,0.0327834,483.487,0.0398854,483.487,0.0552253,
481.965,0.0248582,481.965,0.026677,481.965,0.0285644,481.965,0.0325559,481.965,0.0405897,481.965,0.0557937,
480.442,0.0244534,480.442,0.0263765,480.442,0.027944,480.442,0.0322693,480.442,0.0402989,480.442,0.0556782,
479.071,0.024488,479.071,0.0261959,479.071,0.0283078,479.071,0.0324357,479.071,0.0408764,479.071,0.0565513,
477.547,0.0243387,477.547,0.0259303,477.547,0.0283959,477.547,0.0325117,477.547,0.0413524,477.547,0.0571555,
476.023,0.024236,476.023,0.0263254,476.023,0.0287415,476.023,0.0332483,476.023,0.0419775,476.023,0.0584079,
474.499,0.0247169,474.499,0.0269219,474.499,0.0291922,474.499,0.0341344,474.499,0.0428977,474.499,0.0598796,
472.973,0.025723,472.973,0.0278093,472.973,0.0303808,472.973,0.0353286,472.973,0.0451151,472.973,0.0621118,
471.448,0.0263223,471.448,0.0288399,471.448,0.0311373,471.448,0.036178,471.448,0.0465778,471.448,0.0644864,
470.075,0.0276686,470.075,0.0299004,470.075,0.0326397,470.075,0.0380219,470.075,0.0484152,470.075,0.0667157,
468.548,0.0289972,468.548,0.0311434,468.548,0.0337983,468.548,0.0395857,468.548,0.0503957,468.548,0.069401,
467.021,0.0306852,467.021,0.0328625,467.021,0.0356059,467.021,0.0416517,467.021,0.0531857,467.021,0.0732712,
465.494,0.031946,465.494,0.0346023,465.494,0.0374056,465.494,0.0435202,465.494,0.0555787,465.494,0.0768329,
463.966,0.0335333,463.966,0.0360167,463.966,0.0391501,463.966,0.0456973,463.966,0.0582557,463.966,0.0804794,
462.438,0.0348974,462.438,0.0371236,462.438,0.0407608,462.438,0.0477288,462.438,0.0609703,462.438,0.0838723,
461.062,0.035703,461.062,0.0385274,461.062,0.0420719,461.062,0.049158,461.062,0.0632982,461.062,0.0875156,
459.533,0.0376706,459.533,0.0404834,459.533,0.0441846,459.533,0.0518896,459.533,0.0665038,459.533,0.0921691,
458.004,0.038503,458.004,0.0415393,458.004,0.0460175,458.004,0.0534896,458.004,0.0695354,458.004,0.0962668,
456.474,0.0394789,456.474,0.0425969,456.474,0.0470989,456.474,0.0553706,456.474,0.0719958,456.474,0.100484,
454.944,0.0406618,454.944,0.0440893,454.944,0.0485608,454.944,0.0578448,454.944,0.0752519,454.944,0.105357,
453.566,0.0412649,453.566,0.0451473,453.566,0.0499838,453.566,0.0600201,453.566,0.0787959,453.566,0.110044,
452.035,0.0423615,452.035,0.0461468,452.035,0.051437,452.035,0.0617863,452.035,0.0824021,452.035,0.115597,
450.503,0.0429078,450.503,0.046802,450.503,0.0527565,450.503,0.0645357,450.503,0.0863871,450.503,0.121506,
448.971,0.0433886,448.971,0.048027,448.971,0.0540789,448.971,0.0663241,448.971,0.0894423,448.971,0.126911,
447.439,0.0444178,447.439,0.0489,447.439,0.0556899,447.439,0.0691694,447.439,0.0933206,447.439,0.135178,
446.059,0.0451554,446.059,0.0501604,446.059,0.0571796,446.059,0.0720983,446.059,0.0979237,446.059,0.141245,
444.526,0.0459835,444.526,0.0510134,444.526,0.0589239,444.526,0.0744666,444.526,0.102306,444.526,0.14988,
442.992,0.0465432,442.992,0.0522083,442.992,0.0603943,442.992,0.0771922,442.992,0.107067,442.992,0.157871,
441.458,0.0469933,441.458,0.052823,441.458,0.0619846,441.458,0.0801305,441.458,0.111948,441.458,0.168108,
439.923,0.0482463,439.923,0.0542339,439.923,0.0642561,439.923,0.0840629,439.923,0.118888,439.923,0.17961,
438.542,0.0485724,438.542,0.0552677,438.542,0.0661594,438.542,0.0874422,438.542,0.124303,438.542,0.189265,
437.007,0.0488922,437.007,0.0561841,437.007,0.0677158,437.007,0.0908146,437.007,0.130406,437.007,0.200806,
435.471,0.0493282,435.471,0.0572096,435.471,0.0693832,435.471,0.0936582,435.471,0.136554,435.471,0.213173,
433.935,0.0499796,433.935,0.0587827,433.935,0.0721277,433.935,0.098227,433.935,0.145797,433.935,0.229095,
432.552,0.0506237,432.552,0.0600738,432.552,0.0744122,432.552,0.10271,432.552,0.153891,432.552,0.244936,
431.015,0.0516773,431.015,0.0616222,431.015,0.0769132,431.015,0.10744,431.015,0.162489,431.015,0.260672,
429.477,0.052457,429.477,0.0628149,429.477,0.0797357,429.477,0.112729,429.477,0.173483,429.477,0.278868,
427.939,0.0528462,427.939,0.0642394,427.939,0.083067,427.939,0.118471,427.939,0.183586,427.939,0.301434,
426.555,0.0539896,426.555,0.0661411,426.555,0.0855719,426.555,0.124523,426.555,0.193765,426.555,0.321324,
425.016,0.0542209,425.016,0.0680884,425.016,0.0890615,425.016,0.13059,425.016,0.208764,425.016,0.344872,
423.477,0.0556995,423.477,0.0698382,423.477,0.0928392,423.477,0.137731,423.477,0.22136,423.477,0.370372,
421.938,0.0569044,421.938,0.0720107,421.938,0.0973176,421.938,0.144777,421.938,0.234478,421.938,0.395618,
420.552,0.0575739,420.552,0.0739904,420.552,0.101435,420.552,0.151757,420.552,0.248446,420.552,0.423069,
419.012,0.0588689,419.012,0.076838,419.012,0.106326,419.012,0.161523,419.012,0.267973,419.012,0.45886,
417.471,0.0602803,417.471,0.0795224,417.471,0.111024,417.471,0.171143,417.471,0.286537,417.471,0.490919,
415.93,0.0614405,415.93,0.0823001,415.93,0.115618,415.93,0.180515,415.93,0.305431,415.93,0.526063,
414.543,0.0627023,414.543,0.0851236,414.543,0.121167,414.543,0.190334,414.543,0.324868,414.543,0.561773,
413.001,0.0642873,413.001,0.0884611,413.001,0.127903,413.001,0.203846,413.001,0.349637,413.001,0.607851,
411.459,0.0659937,411.459,0.0917999,411.459,0.134483,411.459,0.216596,411.459,0.374985,411.459,0.660053,
410.071,0.0672439,410.071,0.0948883,410.071,0.141377,410.071,0.228838,410.071,0.397946,410.071,0.700105,
408.528,0.068887,408.528,0.098947,408.528,0.148929,408.528,0.242975,408.528,0.428068,408.528,0.753336,
406.985,0.0708851,406.985,0.102674,406.985,0.156465,406.985,0.258159,406.985,0.455935,406.985,0.807866,
405.441,0.0731688,405.441,0.107874,405.441,0.166823,405.441,0.278142,405.441,0.49239,405.441,0.877605,
404.051,0.0752171,404.051,0.112012,404.051,0.174713,404.051,0.29375,404.051,0.523364,404.051,0.931058,
402.507,0.0776555,402.507,0.117066,402.507,0.184556,402.507,0.31198,402.507,0.560327,402.507,0.998112,
400.962,0.0800696,400.962,0.122411,400.962,0.195323,400.962,0.332489,400.962,0.596243,400.962,1.06734,
399.571,0.0827847,399.571,0.128444,399.571,0.206772,399.571,0.353809,399.571,0.639944,399.571,1.14356,
398.026,0.0863135,398.026,0.135204,398.026,0.220711,398.026,0.380768,398.026,0.691988,398.026,1.24126,
396.48,0.0899206,396.48,0.143497,396.48,0.234826,396.48,0.405776,396.48,0.737093,396.48,1.32468,
394.933,0.0934831,394.933,0.150984,394.933,0.249021,394.933,0.433213,394.933,0.789129,394.933,1.41474,
393.541,0.0971764,393.541,0.157875,393.541,0.263185,393.541,0.458836,393.541,0.83687,393.541,1.50383,
391.994,0.102055,391.994,0.167398,391.994,0.279619,391.994,0.491067,391.994,0.901085,391.994,1.61423,
390.447,0.106894,390.447,0.17814,390.447,0.298892,390.447,0.528032,390.447,0.96742,390.447,1.73038,
389.054,0.111923,389.054,0.187243,389.054,0.316046,389.054,0.559572,389.054,1.02714,389.054,1.84848,
387.506,0.116745,387.506,0.197528,387.506,0.334306,387.506,0.593982,387.506,1.08812,387.506,1.95025,
385.957,0.122334,385.957,0.208549,385.957,0.355535,385.957,0.632372,385.957,1.1638,385.957,2.08131,
384.563,0.129001,384.563,0.220284,384.563,0.376011,384.563,0.671764,384.563,1.23606,384.563,2.18884,
383.014,0.135868,383.014,0.23271,383.014,0.398568,383.014,0.712987,383.014,1.31052,383.014,2.34673,
381.464,0.142854,381.464,0.247117,381.464,0.422285,381.464,0.755891,381.464,1.38938,381.464,2.45498,
380.069,0.149047,380.069,0.257274,380.069,0.442684,380.069,0.793433,380.069,1.45608,380.069,2.52126,
378.519,0.156998,378.519,0.273861,378.519,0.469664,378.519,0.843831,378.519,1.54875,378.519,2.6658,
376.968,0.16495,376.968,0.288223,376.968,0.496116,376.968,0.889063,376.968,1.6354,376.968,2.7349,
375.573,0.172294,375.573,0.30038,375.573,0.51938,375.573,0.932192,375.573,1.71082,375.573,2.84208,
374.021,0.180348,374.021,0.315517,374.021,0.546034,374.021,0.981012,374.021,1.79944,374.021,3.13643,
372.47,0.187381,372.47,0.329014,372.47,0.570579,372.47,1.0234,372.47,1.8778,372.47,3.07276,
371.073,0.195392,371.073,0.343681,371.073,0.597444,371.073,1.07304,371.073,1.95129,371.073,3.58076,
369.52,0.20539,369.52,0.363028,369.52,0.629381,369.52,1.12948,369.52,2.05811,369.52,3.47293,
367.968,0.21378,367.968,0.377674,367.968,0.656125,367.968,1.17881,367.968,2.14099,367.968,3.33541,
366.57,0.22169,366.57,0.391706,366.57,0.681986,366.57,1.22448,366.57,2.22722,366.57,3.44347,
365.016,0.230177,365.016,0.408565,365.016,0.710217,365.016,1.27743,365.016,2.32827,365.016,3.33066,
363.463,0.241084,363.463,0.428457,363.463,0.74767,363.463,1.34401,363.463,2.45011,363.463,4.06586,
362.064,0.248678,362.064,0.442952,362.064,0.773886,362.064,1.39379,362.064,2.55983,362.064,3.89146,
360.51,0.258772,360.51,0.462093,360.51,0.807096,360.51,1.45038,360.51,2.61161,360.51,3.6796,
358.955,0.268735,358.955,0.481881,358.955,0.845568,358.955,1.51954,358.955,2.74539,358.955,4.0405,
357.555,0.277452,357.555,0.496513,357.555,0.872074,357.555,1.57125,357.555,2.81795,357.555,3.77708,
356,0.288937,356,0.520448,356,0.911495,356,1.64318,356,2.88379,356,3.80259,
354.444,0.300399,354.444,0.542285,354.444,0.953788,354.444,1.71564,354.444,2.9993,354.444,3.41484,
353.044,0.310076,353.044,0.560895,353.044,0.988163,353.044,1.78416,353.044,3.0407,353.044,3.71433,
351.487,0.32078,351.487,0.581437,351.487,1.02749,351.487,1.8411,351.487,3.07816,351.487,10,
349.93,0.332364,349.93,0.602744,349.93,1.06708,349.93,1.9263,349.93,3.19265,349.93,4.03009,
348.529,0.34246,348.529,0.623494,348.529,1.10505,348.529,1.99673,348.529,3.21354,348.529,3.65683,
346.972,0.352376,346.972,0.643627,346.972,1.14134,346.972,2.06459,346.972,3.32684,346.972,4.40174,
345.57,0.36095,345.57,0.66015,345.57,1.1726,345.57,2.11285,345.57,3.28353,345.57,4.25165,
344.012,0.369483,344.012,0.675835,344.012,1.20186,344.012,2.16446,344.012,3.47168,344.012,3.70516,
342.453,0.377031,342.453,0.690369,342.453,1.22863,342.453,2.19811,342.453,3.15307,342.453,3.90334,
341.05,0.383209,341.05,0.703153,341.05,1.25161,341.05,2.25196,341.05,3.29719,341.05,3.82353,
339.491,0.388996,339.491,0.714607,339.491,1.27525,339.491,2.27707,339.491,3.37004,339.491,3.91114,
337.932,0.393617,337.932,0.723776,337.932,1.29372,337.932,2.33825,337.932,3.22356,337.932,3.41192,
336.529,0.396801,336.529,0.730126,336.529,1.30593,336.529,2.35234,336.529,3.66084,336.529,3.63331,
334.969,0.399854,334.969,0.736736,334.969,1.31566,334.969,2.38831,334.969,3.40303,334.969,3.75135,
333.564,0.40177,333.564,0.740377,333.564,1.32334,333.564,2.38661,333.564,3.39701,333.564,3.57954,
332.004,0.40262,332.004,0.742552,332.004,1.32864,332.004,2.39245,332.004,3.20301,332.004,3.47002,
330.443,0.401846,330.443,0.741637,330.443,1.32802,330.443,2.38286,330.443,3.24763,330.443,3.70334,
329.038,0.400221,329.038,0.739051,329.038,1.3235,329.038,2.39318,329.038,3.40533,329.038,3.35821,
327.476,0.397027,327.476,0.732903,327.476,1.31234,327.476,2.37387,327.476,3.52156,327.476,3.79403,
326.071,0.39302,326.071,0.724729,326.071,1.29713,326.071,2.34955,326.071,3.33799,326.071,3.50012,
324.509,0.386924,324.509,0.71278,324.509,1.27785,324.509,2.31178,324.509,3.42774,324.509,4.41121,
322.946,0.380511,322.946,0.700059,322.946,1.25318,322.946,2.24438,322.946,3.36711,322.946,3.72753,
321.54,0.37372,321.54,0.686637,321.54,1.22907,321.54,2.22467,321.54,3.67258,321.54,3.85063,
319.977,0.36447,319.977,0.669201,319.977,1.19641,319.977,2.17287,319.977,3.40717,319.977,4.18456,
318.57,0.355692,318.57,0.650633,318.57,1.16466,318.57,2.10969,318.57,3.23652,318.57,4.84738,
317.007,0.34518,317.007,0.630844,317.007,1.12566,317.007,2.0526,317.007,3.34569,317.007,3.66654,
315.443,0.334737,315.443,0.609886,315.443,1.08625,315.443,1.97182,315.443,3.19982,315.443,3.47552,
314.035,0.324756,314.035,0.591269,314.035,1.05345,314.035,1.912,314.035,3.18982,314.035,3.58676,
312.471,0.313696,312.471,0.569398,312.471,1.01276,312.471,1.83219,312.471,3.09179,312.471,3.75213,
311.062,0.301716,311.062,0.545975,311.062,0.969298,311.062,1.75773,311.062,3.05691,311.062,4.13127,
309.497,0.288722,309.497,0.519823,309.497,0.922543,309.497,1.66967,309.497,2.93389,309.497,4.19219,
307.932,0.277985,307.932,0.49742,307.932,0.878514,307.932,1.58909,307.932,2.8368,307.932,3.59537,
306.523,0.267387,306.523,0.477541,306.523,0.84237,306.523,1.51452,306.523,2.69965,306.523,3.62554,
304.957,0.255148,304.957,0.453936,304.957,0.797239,304.957,1.43803,304.957,2.56505,304.957,3.45428,
303.548,0.243971,303.548,0.431678,303.548,0.757177,303.548,1.3613,303.548,2.45379,303.548,3.78507,
301.981,0.234375,301.981,0.412914,301.981,0.721008,301.981,1.29935,301.981,2.33889,301.981,3.58597,
300.571,0.226234,300.571,0.39644,300.571,0.691141,300.571,1.24186,300.571,2.24352,300.571,3.53988,
299.004,0.218678,299.004,0.381403,299.004,0.662946,299.004,1.18878,299.004,2.15278,299.004,3.41161,
297.437,0.214364,297.437,0.371435,297.437,0.644016,297.437,1.14969,297.437,2.07493,297.437,3.29338,
296.026,0.211188,296.026,0.364883,296.026,0.63052,296.026,1.12558,296.026,2.04014,296.026,3.31164,
294.458,0.212724,294.458,0.365742,294.458,0.629375,294.458,1.12053,294.458,2.02349,294.458,3.361,
293.047,0.217172,293.047,0.371817,293.047,0.639625,293.047,1.1366,293.047,2.04603,293.047,3.35731,
291.479,0.223441,291.479,0.384677,291.479,0.66124,291.479,1.17509,291.479,2.12029,291.479,3.43648,
290.067,0.233093,290.067,0.401571,290.067,0.689758,290.067,1.22715,290.067,2.20909,290.067,3.42137,
288.498,0.247449,288.498,0.428902,288.498,0.741342,288.498,1.32563,288.498,2.38552,288.498,3.49781,
286.929,0.260185,286.929,0.456058,286.929,0.793424,286.929,1.42252,286.929,2.57176,286.929,3.48784,
285.517,0.27429,285.517,0.484615,285.517,0.848245,285.517,1.53308,285.517,2.72537,285.517,3.6509,
283.947,0.29386,283.947,0.525417,283.947,0.922867,283.947,1.66592,283.947,2.94973,283.947,3.77941,
282.534,0.314841,282.534,0.564915,282.534,0.998957,282.534,1.80434,282.534,3.14188,282.534,3.71395,
280.964,0.356893,280.964,0.646804,280.964,1.14451,280.964,2.06888,280.964,3.35695,280.964,3.6004,
279.551,0.403743,279.551,0.740848,279.551,1.31526,279.551,2.34457,279.551,3.31924,279.551,3.75993,
277.98,0.451196,277.98,0.833406,277.98,1.48105,277.98,2.65068,277.98,3.54212,277.98,3.51313,
276.566,0.486747,276.566,0.90222,276.566,1.60594,276.566,2.83534,276.566,3.49621,276.566,3.79464,
274.995,0.508596,274.995,0.944117,274.995,1.68657,274.995,2.92327,274.995,3.43472,274.995,3.88077,
273.423,0.52051,273.423,0.968855,273.423,1.73203,273.423,3.0035,273.423,3.67444,273.423,3.51576,
272.009,0.52543,272.009,0.978297,272.009,1.74797,272.009,3.00341,272.009,3.34533,272.009,3.35669,
270.437,0.532073,270.437,0.993318,270.437,1.77742,270.437,3.03742,270.437,3.47713,270.437,3.65244,
269.022,0.542004,269.022,1.01253,269.022,1.81427,269.022,3.14485,269.022,3.55107,269.022,3.8279,
267.449,0.553495,267.449,1.03587,267.449,1.85949,267.449,3.20379,267.449,3.70407,267.449,3.6603,
266.034,0.566459,266.034,1.06172,266.034,1.90148,266.034,3.21114,266.034,3.71432,266.034,3.70216,
264.461,0.577053,264.461,1.08323,264.461,1.94586,264.461,3.21868,264.461,3.59266,264.461,3.49896,
263.045,0.579157,263.045,1.0899,263.045,1.96264,263.045,3.24232,263.045,3.31235,263.045,3.53049,
261.472,0.577617,261.472,1.08671,261.472,1.95391,261.472,3.24454,261.472,3.51937,261.472,3.52255,
260.055,0.575207,260.055,1.08307,260.055,1.95086,260.055,3.08721,260.055,3.53876,260.055,3.53703,
258.481,0.568898,258.481,1.07089,258.481,1.92678,258.481,3.23509,258.481,3.68792,258.481,3.97411,
257.065,0.561039,257.065,1.05846,257.065,1.91344,257.065,3.33946,257.065,3.73573,257.065,3.86146,
255.49,0.552312,255.49,1.04106,255.49,1.87596,255.49,3.13258,255.49,3.36735,255.49,3.61134,
254.073,0.542203,254.073,1.0211,254.073,1.83881,254.073,3.17148,254.073,3.48004,254.073,3.52613,
252.498,0.531095,252.498,0.998445,252.498,1.80578,252.498,3.17878,252.498,3.68558,252.498,4.00228,
250.923,0.515219,250.923,0.967674,250.923,1.74985,250.923,3.11918,250.923,3.45444,250.923,3.79014,
249.508,0.500407,249.508,0.938163,249.508,1.69276,249.508,2.94916,249.508,3.37679,249.508,3.48478,
247.942,0.485072,247.942,0.909213,247.942,1.63995,247.942,2.93432,247.942,3.61566,247.942,3.68537,
246.533,0.474716,246.533,0.886872,246.533,1.59645,246.533,2.82006,246.533,3.39218,246.533,3.61075,
244.966,0.461173,244.966,0.860758,244.966,1.54977,244.966,2.76451,244.966,3.63922,244.966,3.73343,
243.556,0.453501,243.556,0.843996,243.556,1.51547,243.556,2.69252,243.556,3.45542,243.556,3.6976,
241.989,0.448891,241.989,0.835149,241.989,1.49854,241.989,2.69389,241.989,3.63633,241.989,3.75597,
240.578,0.452879,240.578,0.83982,240.578,1.50326,240.578,2.70417,240.578,3.50875,240.578,3.99388,
239.011,0.465065,239.011,0.862104,239.011,1.54045,239.011,2.74843,239.011,3.47724,239.011,3.90966,
237.443,0.486971,237.443,0.90187,237.443,1.61453,237.443,2.90064,237.443,3.56147,237.443,3.88561,
236.032,0.514102,236.032,0.957596,236.032,1.70674,236.032,2.91442,236.032,3.44311,236.032,3.63334,
234.464,0.563315,234.464,1.05189,234.464,1.88313,234.464,3.21491,234.464,3.57416,234.464,3.58193,
233.052,0.62383,233.052,1.16602,233.052,2.07228,233.052,3.36899,233.052,3.58448,233.052,3.77618,
231.484,0.683324,231.484,1.27668,231.484,2.27066,231.484,3.39921,231.484,3.66198,231.484,4.46445,
230.072,0.746961,230.072,1.40253,230.072,2.50748,230.072,3.67167,230.072,3.70619,230.072,4.62186,
228.503,0.816809,228.503,1.54346,228.503,2.66525,228.503,3.32067,228.503,3.40709,228.503,3.33228,
226.934,0.900978,226.934,1.68528,226.934,2.84026,226.934,3.31827,226.934,3.45333,226.934,3.49659,
225.521,0.977866,225.521,1.82891,225.521,3.02942,225.521,3.56277,225.521,3.49192,225.521,3.59196,
223.952,1.05154,223.952,1.95828,223.952,3.07659,223.952,3.41833,223.952,3.43065,223.952,3.49908,
222.539,1.1157,222.539,2.07504,222.539,3.11887,222.539,3.30747,222.539,3.36204,222.539,3.46933,
220.969,1.18321,220.969,2.19271,220.969,3.14307,220.969,3.31003,220.969,3.16249,220.969,3.41728,
219.555,1.24587,219.555,2.30086,219.555,3.25275,219.555,3.46943,219.555,3.52592,219.555,3.60744,
217.985,1.31041,217.985,2.40886,217.985,3.25572,217.985,3.45439,217.985,3.33739,217.985,3.58628,
216.572,1.34793,216.572,2.44821,216.572,3.17786,216.572,3.43044,216.572,3.48886,216.572,3.39987,
215.001,1.39997,215.001,2.54221,215.001,3.34745,215.001,3.33313,215.001,3.37021,215.001,3.59331,
213.43,1.45467,213.43,2.63133,213.43,3.2213,213.43,3.47979,213.43,3.45297,213.43,3.50501,
212.016,1.51586,212.016,2.71677,212.016,3.25663,212.016,3.39714,212.016,3.31524,212.016,3.41002,
210.444,1.60182,210.444,2.82153,210.444,3.26242,210.444,3.38814,210.444,3.40986,210.444,3.47368,
209.03,1.63932,209.03,2.8382,209.03,3.30769,209.03,3.30362,209.03,3.30068,209.03,3.42389,
207.458,1.66128,207.458,2.89171,207.458,3.23908,207.458,3.40798,207.458,3.3505,207.458,3.55858,
206.043,1.66709,206.043,2.8481,206.043,3.29431,206.043,3.43448,206.043,3.35739,206.043,3.4111,
204.471,1.64401,204.471,2.81746,204.471,3.37647,204.471,3.33223,204.471,3.30157,204.471,3.46601,
203.056,1.61748,203.056,2.7575,203.056,3.19062,203.056,3.34535,203.056,3.27534,203.056,3.3774,
201.483,1.58474,201.483,2.68423,201.483,3.32082,201.483,3.39179,201.483,3.32864,201.483,3.22511,
200.068,1.56841,200.068,2.65833,200.068,3.23104,200.068,3.324754,200.068,3.23488,200.068,3.39819,

is_2_11_7uM,
is_2_11_7uM
Collection Time: 4/29/2024 9:42:58 AM
Operator Name  :
Scan Software Version: 3.00(339)
Parameter List :
Instrument                        Cary 50
Instrument Version                3.00
Start (nm)                        800.0
Stop (nm)                         200.0
X Mode                            Nanometers
Y Mode                            Abs
UV-Vis Scan Rate (nm/min)         300.00
UV-Vis Data Interval (nm)         0.50
UV-Vis Ave. Time (sec)            0.1000
Beam Mode                         Dual Beam
Baseline Correction               Off
Cycle Mode                        Off
Comments
Method Log     :
Method Name    :
Date/Time stamp: 4/20/2024 5:05:46 PM
Method Modifications:
UVVIS SAT Changed: 4/29/2024 9:41:25 AM, Old:0.0125, New:0.1000
Common SAT Changed: 4/29/2024 9:41:25 AM, Old:0.0125, New:0.1000
Common Interval nm Changed: 4/29/2024 9:41:27 AM, Old:     5.00, New:     0.50
End Method Modifications
<Current Wavelength> , 200.5

is_2_11_15uM1,
is_2_11_15uM1
Collection Time: 4/29/2024 9:56:31 AM
Operator Name  :
Scan Software Version: 3.00(339)
Parameter List :
Instrument                        Cary 50
Instrument Version                3.00
Start (nm)                        800.0
Stop (nm)                         200.0
X Mode                            Nanometers
Y Mode                            Abs
UV-Vis Scan Rate (nm/min)         300.00
UV-Vis Data Interval (nm)         0.50
UV-Vis Ave. Time (sec)            0.1000
Beam Mode                         Dual Beam
Baseline Correction               Off
Cycle Mode                        Off
Comments
Method Log     :
Method Name    :
Date/Time stamp: 4/20/2024 5:05:46 PM
Method Modifications:
UVVIS SAT Changed: 4/29/2024 9:41:25 AM, Old:0.0125, New:0.1000
Common SAT Changed: 4/29/2024 9:41:25 AM, Old:0.0125, New:0.1000
Common Interval nm Changed: 4/29/2024 9:41:27 AM, Old:     5.00, New:     0.50
End Method Modifications
<Current Wavelength> , 200.5

is_2_11_31uM,
is_2_11_31uM
Collection Time: 4/29/2024 9:59:55 AM
Operator Name  :
Scan Software Version: 3.00(339)
Parameter List :
Instrument                        Cary 50
Instrument Version                3.00
Start (nm)                        800.0
Stop (nm)                         200.0
X Mode                            Nanometers
Y Mode                            Abs
UV-Vis Scan Rate (nm/min)         300.00
UV-Vis Data Interval (nm)         0.50
UV-Vis Ave. Time (sec)            0.1000
Beam Mode                         Dual Beam
Baseline Correction               Off
Cycle Mode                        Off
Comments
Method Log     :
Method Name    :
Date/Time stamp: 4/20/2024 5:05:46 PM
Method Modifications:
UVVIS SAT Changed: 4/29/2024 9:41:25 AM, Old:0.0125, New:0.1000
Common SAT Changed: 4/29/2024 9:41:25 AM, Old:0.0125, New:0.1000
Common Interval nm Changed: 4/29/2024 9:41:27 AM, Old:     5.00, New:     0.50
End Method Modifications
<Current Wavelength> , 200.5

is_2_11_62uM,
is_2_11_62uM
Collection Time: 4/29/2024 10:03:02 AM
Operator Name  :
Scan Software Version: 3.00(339)
Parameter List :
Instrument                        Cary 50
Instrument Version                3.00
Start (nm)                        800.0
Stop (nm)                         200.0
X Mode                            Nanometers
Y Mode                            Abs
UV-Vis Scan Rate (nm/min)         300.00
UV-Vis Data Interval (nm)         0.50
UV-Vis Ave. Time (sec)            0.1000
Beam Mode                         Dual Beam
Baseline Correction               Off
Cycle Mode                        Off
Comments
Method Log     :
Method Name    :
Date/Time stamp: 4/20/2024 5:05:46 PM
Method Modifications:
UVVIS SAT Changed: 4/29/2024 9:41:25 AM, Old:0.0125, New:0.1000
Common SAT Changed: 4/29/2024 9:41:25 AM, Old:0.0125, New:0.1000
Common Interval nm Changed: 4/29/2024 9:41:27 AM, Old:     5.00, New:     0.50
End Method Modifications
<Current Wavelength> , 200.5

is_2_11_125uM,
is_2_11_125uM
Collection Time: 4/29/2024 10:06:14 AM
Operator Name  :
Scan Software Version: 3.00(339)
Parameter List :
Instrument                        Cary 50
Instrument Version                3.00
Start (nm)                        800.0
Stop (nm)                         200.0
X Mode                            Nanometers
Y Mode                            Abs
UV-Vis Scan Rate (nm/min)         300.00
UV-Vis Data Interval (nm)         0.50
UV-Vis Ave. Time (sec)            0.1000
Beam Mode                         Dual Beam
Baseline Correction               Off
Cycle Mode                        Off
Comments
Method Log     :
Method Name    :
Date/Time stamp: 4/20/2024 5:05:46 PM
Method Modifications:
UVVIS SAT Changed: 4/29/2024 9:41:25 AM, Old:0.0125, New:0.1000
Common SAT Changed: 4/29/2024 9:41:25 AM, Old:0.0125, New:0.1000
Common Interval nm Changed: 4/29/2024 9:41:27 AM, Old:     5.00, New:     0.50
End Method Modifications
<Current Wavelength> , 200.5

is_2_11_250uM,
is_2_11_250uM
Collection Time: 4/29/2024 10:09:10 AM
Operator Name  :
Scan Software Version: 3.00(339)
Parameter List :
Instrument                        Cary 50
Instrument Version                3.00
Start (nm)                        800.0
Stop (nm)                         200.0
X Mode                            Nanometers
Y Mode                            Abs
UV-Vis Scan Rate (nm/min)         300.00
UV-Vis Data Interval (nm)         0.50
UV-Vis Ave. Time (sec)            0.1000
Beam Mode                         Dual Beam
Baseline Correction               Off
Cycle Mode                        Off
Comments
Method Log     :
Method Name    :
Date/Time stamp: 4/20/2024 5:05:46 PM
Method Modifications:
UVVIS SAT Changed: 4/29/2024 9:41:25 AM, Old:0.0125, New:0.1000
Common SAT Changed: 4/29/2024 9:41:25 AM, Old:0.0125, New:0.1000
Common Interval nm Changed: 4/29/2024 9:41:27 AM, Old:     5.00, New:     0.50
End Method Modifications
<Current Wavelength> , 200.5