File: silicates_UV_vis/Allylsilicates_plot/is_2_3_allyl_methoxysilicate.csv
is_2_3_31uM,,is_2_3_15uM,,is_2_3_62uM,,is_2_3_125uM,,is_2_3_250uM1,,
Wavelength (nm),Abs,Wavelength (nm),Abs,Wavelength (nm),Abs,Wavelength (nm),Abs,Wavelength (nm),Abs,
799.953,-0.000748753,799.953,-0.000554434,799.953,-0.00162823,799.953,-0.000842185,799.953,-0.000916844,
798.565,0.000600581,798.565,0.000422587,798.565,7.17618e-05,798.565,-0.000468749,798.565,-0.000156944,
797.037,-0.000261163,797.037,-0.000541197,797.037,-0.000922682,797.037,-0.000451424,797.037,-0.000370063,
795.509,-0.000377254,795.509,-0.000782707,795.509,-0.000777849,795.509,-0.00104944,795.509,-0.000752422,
793.979,-0.000491141,793.979,-0.000992162,793.979,-0.000935959,793.979,-0.00165695,793.979,-0.00132866,
792.449,-0.000606033,792.449,-0.00184341,792.449,-0.000945775,792.449,-0.00144772,792.449,-0.00181861,
791.057,-0.00148456,791.057,-0.00113124,791.057,-0.00148724,791.057,-0.00172596,791.057,-0.00182124,
789.524,-0.00107929,789.524,-0.00185743,789.524,-0.00192336,789.524,-0.00187403,789.524,-0.00190125,
787.991,-0.00158397,787.991,-0.00184454,787.991,-0.00194903,787.991,-0.00225975,787.991,-0.00229771,
786.457,-0.00169543,786.457,-0.00212892,786.457,-0.0021707,786.457,-0.00175303,786.457,-0.00244399,
785.062,-0.00196877,785.062,-0.00280046,785.062,-0.00227031,785.062,-0.00253053,785.062,-0.00273271,
783.526,-0.00187661,783.526,-0.00274511,783.526,-0.00212392,783.526,-0.00250278,783.526,-0.00263124,
781.989,-0.0017819,781.989,-0.00261678,781.989,-0.00225162,781.989,-0.00223601,781.989,-0.00232222,
780.451,-0.00220655,780.451,-0.00256491,780.451,-0.00259296,780.451,-0.00288126,780.451,-0.00223498,
779.053,-0.00274984,779.053,-0.00320463,779.053,-0.00239616,779.053,-0.00308107,779.053,-0.00275802,
777.513,-0.00275375,777.513,-0.0029711,777.513,-0.00303131,777.513,-0.00289253,777.513,-0.00325458,
775.973,-0.00247457,775.973,-0.00289217,775.973,-0.00353141,775.973,-0.00317796,775.973,-0.00293588,
774.432,-0.00288394,774.432,-0.00302221,774.432,-0.00289823,774.432,-0.00321096,774.432,-0.00367122,
773.03,-0.00284248,773.03,-0.00350229,773.03,-0.00337779,773.03,-0.00370218,773.03,-0.0039091,
771.487,-0.00279069,771.487,-0.00346136,771.487,-0.00389427,771.487,-0.00419654,771.487,-0.00370064,
769.943,-0.00307459,769.943,-0.00359478,769.943,-0.00395527,769.943,-0.003322,769.943,-0.00383788,
768.539,-0.00346968,768.539,-0.00363123,768.539,-0.00398205,768.539,-0.00395748,768.539,-0.00395799,
766.993,-0.00342458,766.993,-0.00399201,766.993,-0.00401309,766.993,-0.00419382,766.993,-0.00393942,
765.447,-0.00354517,765.447,-0.00400847,765.447,-0.00402884,765.447,-0.00407208,765.447,-0.00409577,
764.04,-0.00394337,764.04,-0.0044453,764.04,-0.00441557,764.04,-0.00440814,764.04,-0.00394763,
762.492,-0.00464982,762.492,-0.00458845,762.492,-0.00471389,762.492,-0.00484922,762.492,-0.00487411,
760.943,-0.00433808,760.943,-0.00478522,760.943,-0.00508497,760.943,-0.00460059,760.943,-0.00446113,
759.534,-0.00444361,759.534,-0.00479623,759.534,-0.00479331,759.534,-0.00516147,759.534,-0.00523994,
757.983,-0.00497802,757.983,-0.00514438,757.983,-0.0051696,757.983,-0.00553191,757.983,-0.00536703,
756.432,-0.00519211,756.432,-0.00575891,756.432,-0.00592232,756.432,-0.00589311,756.432,-0.00589745,
755.02,-0.00597773,755.02,-0.0056973,755.02,-0.00612758,755.02,-0.00565723,755.02,-0.00573388,
753.467,-0.00603298,753.467,-0.00613442,753.467,-0.00620557,753.467,-0.0060173,753.467,-0.00626048,
752.054,-0.00629248,752.054,-0.0065305,752.054,-0.00648486,752.054,-0.00638692,752.054,-0.00644339,
750.499,-0.00644329,750.499,-0.00646976,750.499,-0.00656136,750.499,-0.00669969,750.499,-0.00677054,
748.943,-0.00644874,748.943,-0.00707611,748.943,-0.00699863,748.943,-0.00740986,748.943,-0.00712826,
747.528,-0.00673313,747.528,-0.00738915,747.528,-0.00704738,747.528,-0.00738736,747.528,-0.00728851,
745.971,-0.00716768,745.971,-0.00771955,745.971,-0.00782325,745.971,-0.00784928,745.971,-0.00775597,
744.554,-0.00784353,744.554,-0.00778999,744.554,-0.00812777,744.554,-0.00848727,744.554,-0.00816872,
742.995,-0.00793911,742.995,-0.00852895,742.995,-0.00839882,742.995,-0.00828536,742.995,-0.00857006,
741.435,-0.00880857,741.435,-0.00901561,741.435,-0.00908842,741.435,-0.00972206,741.435,-0.00922712,
740.016,-0.0091488,740.016,-0.00974793,740.016,-0.00960424,740.016,-0.00960596,740.016,-0.00954124,
738.454,-0.00904883,738.454,-0.00937352,738.454,-0.00918814,738.454,-0.00957563,738.454,-0.00957026,
737.034,-0.00997608,737.034,-0.00994269,737.034,-0.00991465,737.034,-0.0105662,737.034,-0.0104722,
735.47,-0.00974024,735.47,-0.0100086,735.47,-0.0101072,735.47,-0.0103177,735.47,-0.0102925,
734.048,-0.00948932,734.048,-0.0100171,734.048,-0.00981207,734.048,-0.00981212,734.048,-0.0101367,
732.483,-0.00930562,732.483,-0.00957112,732.483,-0.00969857,732.483,-0.0100292,732.483,-0.00952468,
731.06,-0.00990038,731.06,-0.0103155,731.06,-0.00993196,731.06,-0.0101157,731.06,-0.0102225,
729.493,-0.0105768,729.493,-0.0108965,729.493,-0.0108082,729.493,-0.011125,729.493,-0.0110981,
728.068,-0.0116202,728.068,-0.0119936,728.068,-0.0118682,728.068,-0.0119299,728.068,-0.0118657,
726.5,-0.0126523,726.5,-0.0130017,726.5,-0.0127953,726.5,-0.0132458,726.5,-0.0130107,
724.931,-0.0135244,724.931,-0.0140967,724.931,-0.0142009,724.931,-0.0144643,724.931,-0.0142223,
723.504,-0.014425,723.504,-0.014868,723.504,-0.0147066,723.504,-0.015077,723.504,-0.0148988,
721.933,-0.0147764,721.933,-0.0152302,721.933,-0.0155832,721.933,-0.0154376,721.933,-0.0154708,
720.505,-0.0150659,720.505,-0.0159152,720.505,-0.0157236,720.505,-0.0158051,720.505,-0.015902,
718.932,-0.0151775,718.932,-0.0159228,718.932,-0.0158002,718.932,-0.016134,718.932,-0.015921,
717.502,-0.0153716,717.502,-0.0159769,717.502,-0.0158003,717.502,-0.0159348,717.502,-0.015906,
715.928,-0.0150717,715.928,-0.0155159,715.928,-0.0153866,715.928,-0.0154556,715.928,-0.0156174,
714.497,-0.0145113,714.497,-0.0147597,714.497,-0.0149026,714.497,-0.0149719,714.497,-0.0151673,
713.065,-0.0137907,713.065,-0.0143391,713.065,-0.0143335,713.065,-0.0143672,713.065,-0.0144505,
711.488,-0.0127331,711.488,-0.0134156,711.488,-0.0130128,711.488,-0.0131955,711.488,-0.0131663,
710.055,-0.0111122,710.055,-0.0115143,710.055,-0.0117038,710.055,-0.0116292,710.055,-0.0116181,
708.477,-0.00957436,708.477,-0.0102138,708.477,-0.00988707,708.477,-0.010299,708.477,-0.0103291,
707.042,-0.00801927,707.042,-0.00836901,707.042,-0.00836967,707.042,-0.00865868,707.042,-0.0085392,
705.463,-0.00583881,705.463,-0.0060874,705.463,-0.00606096,705.463,-0.00621868,705.463,-0.0062048,
704.026,-0.0040591,704.026,-0.00416982,704.026,-0.00423366,704.026,-0.00438339,704.026,-0.00457201,
702.445,-0.00225831,702.445,-0.00238679,702.445,-0.00243478,702.445,-0.00246731,702.445,-0.00261066,
701.007,0.000133333,701.007,-0.000393754,701.007,-0.000375391,701.007,-0.000311452,701.007,-0.00025128,
699.569,0.00193831,699.569,0.00174532,699.569,0.00147762,699.569,0.00147175,699.569,0.00178181,
697.985,0.00393447,697.985,0.00347028,697.985,0.0035054,697.985,0.00339785,697.985,0.00329966,
696.545,0.00556322,696.545,0.00508759,696.545,0.00536586,696.545,0.00536843,696.545,0.00525829,
694.961,0.00742055,694.961,0.00706779,694.961,0.00713052,694.961,0.00718663,694.961,0.00696964,
693.519,0.00870572,693.519,0.00846128,693.519,0.0086387,693.519,0.00841232,693.519,0.00826141,
691.933,0.0103717,691.933,0.0102118,691.933,0.0100949,691.933,0.0099974,691.933,0.0102603,
690.49,0.0113634,690.49,0.0112788,690.49,0.01092,690.49,0.0111054,690.49,0.0108049,
689.046,0.0123525,689.046,0.0121272,689.046,0.0123048,689.046,0.0118257,689.046,0.0117611,
687.458,0.013669,687.458,0.0129881,687.458,0.0130281,687.458,0.0132316,687.458,0.0132169,
686.013,0.015071,686.013,0.0144488,686.013,0.0146759,686.013,0.0144655,686.013,0.0141326,
684.567,0.014727,684.567,0.0145066,684.567,0.0148751,684.567,0.0143046,684.567,0.0144498,
682.976,0.0153895,682.976,0.0151143,682.976,0.0153279,682.976,0.0150232,682.976,0.0149642,
681.53,0.0163128,681.53,0.0156339,681.53,0.0159449,681.53,0.015716,681.53,0.0158007,
679.937,0.0166128,679.937,0.0162757,679.937,0.0162647,679.937,0.0161129,679.937,0.0163053,
678.489,0.0171067,678.489,0.0166489,678.489,0.0167787,678.489,0.0166425,678.489,0.0168043,
677.04,0.0172089,677.04,0.0170465,677.04,0.0170547,677.04,0.0169361,677.04,0.0168689,
675.445,0.0178365,675.445,0.0174231,675.445,0.0173396,675.445,0.0172545,675.445,0.0173989,
673.995,0.0178709,673.995,0.017692,673.995,0.0175683,673.995,0.017261,673.995,0.0177907,
672.544,0.018037,672.544,0.0178225,672.544,0.0176146,672.544,0.0176207,672.544,0.0179973,
670.947,0.0181872,670.947,0.0181088,670.947,0.0180154,670.947,0.018062,670.947,0.0181314,
669.495,0.0192416,669.495,0.0185482,669.495,0.0186973,669.495,0.0184404,669.495,0.0185661,
668.042,0.0181712,668.042,0.0174061,668.042,0.0176493,668.042,0.0174689,668.042,0.0177556,
666.443,0.0170036,666.443,0.0162144,666.443,0.0166189,666.443,0.0163183,666.443,0.0165554,
664.988,0.0163475,664.988,0.0163277,664.988,0.0159569,664.988,0.0159201,664.988,0.0163251,
663.533,0.0163203,663.533,0.0158179,663.533,0.0155779,663.533,0.0156445,663.533,0.0157301,
661.932,0.0160066,661.932,0.0153698,661.932,0.0156053,661.932,0.0153941,661.932,0.015997,
660.476,0.01559,660.476,0.0155389,660.476,0.0156441,660.476,0.0152773,660.476,0.0154881,
659.019,0.0156461,659.019,0.0152431,659.019,0.0151383,659.019,0.0150962,659.019,0.0153472,
657.561,0.0154222,657.561,0.0150866,657.561,0.0151389,657.561,0.014864,657.561,0.0150737,
655.957,0.0157551,655.957,0.0152476,655.957,0.0148815,655.957,0.0150411,655.957,0.01517097,
654.498,0.0153828,654.498,0.0150638,654.498,0.0150047,654.498,0.0148983,654.498,0.0150169,
653.039,0.0153011,653.039,0.0153118,653.039,0.015027,653.039,0.0147755,653.039,0.0151201,
651.433,0.0152539,651.433,0.0148835,651.433,0.0152373,651.433,0.01481,651.433,0.0149011,
649.972,0.0158609,649.972,0.0155253,649.972,0.0152696,649.972,0.0156124,649.972,0.0153104,
648.51,0.0153333,648.51,0.0149608,648.51,0.0152383,648.51,0.0146558,648.51,0.0150969,
647.048,0.0152284,647.048,0.0146948,647.048,0.0146572,647.048,0.0148529,647.048,0.015029,
645.439,0.0151582,645.439,0.0149318,645.439,0.0146628,645.439,0.0148499,645.439,0.0148118,
643.976,0.0157252,643.976,0.0155074,643.976,0.015538,643.976,0.0154952,643.976,0.0153655,
642.512,0.0149038,642.512,0.0147977,642.512,0.0149686,642.512,0.0148553,642.512,0.0150094,
641.047,0.0152779,641.047,0.0145632,641.047,0.0149417,641.047,0.014784,641.047,0.0147985,
639.435,0.0153092,639.435,0.0148529,639.435,0.0151393,639.435,0.0147091,639.435,0.0145942,
637.969,0.0152765,637.969,0.0149269,637.969,0.0147971,637.969,0.0148471,637.969,0.0149425,
636.503,0.0150783,636.503,0.0147148,636.503,0.0149224,636.503,0.0147178,636.503,0.0146638,
635.035,0.01525,635.035,0.0150945,635.035,0.0151359,635.035,0.0146088,635.035,0.0148339,
633.568,0.0153499,633.568,0.0149084,633.568,0.0149718,633.568,0.014975,633.568,0.0146831,
631.952,0.0152984,631.952,0.0148538,631.952,0.0151195,631.952,0.0148163,631.952,0.0149547,
630.483,0.0153168,630.483,0.0149554,630.483,0.0150273,630.483,0.0149047,630.483,0.0149614,
629.013,0.0155192,629.013,0.0148806,629.013,0.0148743,629.013,0.014796,629.013,0.0149022,
627.543,0.0151863,627.543,0.0151117,627.543,0.0151517,627.543,0.0147034,627.543,0.0148404,
626.072,0.0154169,626.072,0.0153169,626.072,0.0151311,626.072,0.015157,626.072,0.0149516,
624.454,0.0155043,624.454,0.0152397,624.454,0.015157,624.454,0.0149396,624.454,0.0153634,
622.981,0.0159247,622.981,0.0152998,622.981,0.0153544,622.981,0.014995,622.981,0.0150862,
621.509,0.015454,621.509,0.0153044,621.509,0.0152046,621.509,0.0151028,621.509,0.0151708,
620.035,0.0154177,620.035,0.0152582,620.035,0.0152964,620.035,0.0151089,620.035,0.0153273,
618.561,0.0153027,618.561,0.0152855,618.561,0.0154444,618.561,0.0150371,618.561,0.0149348,
616.939,0.0151158,616.939,0.0147199,616.939,0.015026,616.939,0.0148439,616.939,0.0150337,
615.464,0.0149804,615.464,0.0148916,615.464,0.0149582,615.464,0.0147551,615.464,0.0148503,
613.988,0.0150368,613.988,0.0148995,613.988,0.0148487,613.988,0.0145415,613.988,0.0145112,
612.512,0.0148886,612.512,0.0147469,612.512,0.0148622,612.512,0.0147383,612.512,0.0147387,
611.035,0.0148828,611.035,0.0145129,611.035,0.0147752,611.035,0.0142541,611.035,0.0144689,
609.557,0.0149302,609.557,0.0146029,609.557,0.0147283,609.557,0.0145316,609.557,0.01439,
607.931,0.0147918,607.931,0.0143939,607.931,0.0147008,607.931,0.0144015,607.931,0.0145157,
606.453,0.01474,606.453,0.0144474,606.453,0.0146877,606.453,0.014073,606.453,0.0140933,
604.973,0.0146762,604.973,0.014348,604.973,0.0145854,604.973,0.0144056,604.973,0.0145057,
603.493,0.0146639,603.493,0.0143207,603.493,0.0146456,603.493,0.0143708,603.493,0.0144615,
602.013,0.0145902,602.013,0.0141323,602.013,0.0144999,602.013,0.0140892,602.013,0.0142021,
600.531,0.014391,600.531,0.0141955,600.531,0.0143625,600.531,0.0142099,600.531,0.0140837,
599.05,0.014329,599.05,0.0139702,599.05,0.0142925,599.05,0.0138743,599.05,0.0138661,
597.568,0.0143292,597.568,0.0136024,597.568,0.014365,597.568,0.0137055,597.568,0.0136561,
595.936,0.0142243,595.936,0.0137336,595.936,0.0141809,595.936,0.0138517,595.936,0.013699,
594.453,0.0141455,594.453,0.0135921,594.453,0.0141172,594.453,0.0135222,594.453,0.0139062,
592.969,0.01374,592.969,0.0136658,592.969,0.0141202,592.969,0.0135339,592.969,0.0133576,
591.484,0.0137303,591.484,0.0135917,591.484,0.0138293,591.484,0.0134234,591.484,0.0135045,
589.999,0.0135102,589.999,0.0133695,589.999,0.0137103,589.999,0.0133139,589.999,0.0131347,
588.513,0.0135502,588.513,0.013144,588.513,0.0134872,588.513,0.0130911,588.513,0.0130104,
587.027,0.0135149,587.027,0.0128449,587.027,0.0132489,587.027,0.0127794,587.027,0.0128978,
585.54,0.0130874,585.54,0.0127454,585.54,0.0130755,585.54,0.012685,585.54,0.0128593,
584.052,0.0128649,584.052,0.0125433,584.052,0.0127672,584.052,0.0126173,584.052,0.0126046,
582.564,0.0128973,582.564,0.0122115,582.564,0.0125588,582.564,0.0123532,582.564,0.0123871,
580.927,0.0124186,580.927,0.0121738,580.927,0.012268,580.927,0.0122844,580.927,0.0122434,
579.438,0.012442,579.438,0.0117195,579.438,0.012108,579.438,0.0117934,579.438,0.0117731,
577.948,0.0120145,577.948,0.0115811,577.948,0.0118831,577.948,0.0116139,577.948,0.0116779,
576.458,0.0117515,576.458,0.0113378,576.458,0.0114888,576.458,0.0113828,576.458,0.0114872,
574.967,0.0114573,574.967,0.0112665,574.967,0.0111994,574.967,0.0109862,574.967,0.0112914,
573.475,0.0112598,573.475,0.0107984,573.475,0.0109916,573.475,0.0106457,573.475,0.0108652,
571.983,0.0110161,571.983,0.0104656,571.983,0.0106378,571.983,0.0104746,571.983,0.0106158,
570.491,0.0104407,570.491,0.0103276,570.491,0.0102229,570.491,0.0102685,570.491,0.0101078,
568.998,0.0101879,568.998,0.00979055,568.998,0.0100071,568.998,0.00990764,568.998,0.00995089,
567.504,0.00983826,567.504,0.00948671,567.504,0.00961732,567.504,0.00933645,567.504,0.0094656,
566.01,0.00942803,566.01,0.00922697,566.01,0.00934315,566.01,0.0091343,566.01,0.00929533,
564.515,0.00900328,564.515,0.00890828,564.515,0.00881758,564.515,0.00877246,564.515,0.00866362,
563.02,0.00885554,563.02,0.00833041,563.02,0.00833885,563.02,0.00853823,563.02,0.00844046,
561.524,0.00824814,561.524,0.00808276,561.524,0.00801364,561.524,0.00793056,561.524,0.00783308,
560.028,0.00782689,560.028,0.00744912,560.028,0.00757194,560.028,0.00744715,560.028,0.00756604,
558.531,0.00745052,558.531,0.00706477,558.531,0.00721626,558.531,0.0070061,558.531,0.00698374,
557.033,0.00693786,557.033,0.00679304,557.033,0.00672897,557.033,0.00666167,557.033,0.00667712,
555.535,0.00641163,555.535,0.006282,555.535,0.00637945,555.535,0.00621325,555.535,0.00615152,
554.037,0.00602066,554.037,0.00567241,554.037,0.00588272,554.037,0.00562704,554.037,0.00575086,
552.538,0.00559421,552.538,0.00546318,552.538,0.00535422,552.538,0.00537637,552.538,0.00521818,
551.038,0.00517451,551.038,0.00494435,551.038,0.00489252,551.038,0.0047138,551.038,0.0049055,
549.538,0.00462874,549.538,0.00437971,549.538,0.00437866,549.538,0.00430989,549.538,0.00455109,
548.038,0.00420358,548.038,0.00391574,548.038,0.00397951,548.038,0.00382263,548.038,0.00389746,
546.536,0.0040321,546.536,0.00362979,546.536,0.00368829,546.536,0.00368529,546.536,0.00366629,
545.035,0.00369077,545.035,0.00326646,545.035,0.00340481,545.035,0.00334171,545.035,0.00340382,
543.533,0.00342073,543.533,0.0030479,543.533,0.00317265,543.533,0.00308132,543.533,0.00323719,
542.03,0.00350076,542.03,0.00303061,542.03,0.00296717,542.03,0.00286825,542.03,0.00305947,
540.527,0.0032481,540.527,0.00292797,540.527,0.00298818,540.527,0.0030553,540.527,0.00316877,
539.023,0.00350282,539.023,0.00297546,539.023,0.00300804,539.023,0.00304633,539.023,0.00308314,
537.518,0.00356809,537.518,0.0031096,537.518,0.00328923,537.518,0.00320853,537.518,0.00337596,
536.014,0.00395944,536.014,0.00359074,536.014,0.00374364,536.014,0.00378829,536.014,0.00384141,
534.508,0.00440912,534.508,0.00394066,534.508,0.00419888,534.508,0.00412682,534.508,0.0041943,
533.003,0.00504417,533.003,0.00482534,533.003,0.00490118,533.003,0.0047909,533.003,0.00493579,
531.496,0.00582791,531.496,0.0055392,531.496,0.00568112,531.496,0.00549359,531.496,0.00566725,
529.989,0.00683519,529.989,0.00645556,529.989,0.00650253,529.989,0.006644,529.989,0.00681434,
528.482,0.00780364,528.482,0.00744357,528.482,0.00760075,528.482,0.00786998,528.482,0.00773721,
526.974,0.00928491,526.974,0.00871401,526.974,0.00895214,526.974,0.00898594,526.974,0.00908611,
525.466,0.0104362,525.466,0.00986908,525.466,0.0104696,525.466,0.0101993,525.466,0.0102829,
523.957,0.0120226,523.957,0.0113152,523.957,0.0118357,523.957,0.011607,523.957,0.0116666,
522.447,0.0132083,522.447,0.0128142,522.447,0.013031,522.447,0.0130369,522.447,0.0129897,
520.937,0.0143831,520.937,0.0139988,520.937,0.0143654,520.937,0.014171,520.937,0.0145427,
519.427,0.0158643,519.427,0.0153558,519.427,0.0153293,519.427,0.0157189,519.427,0.0154964,
518.067,0.0171589,518.067,0.0166384,518.067,0.0166893,518.067,0.0169107,518.067,0.0169154,
516.556,0.0182489,516.556,0.018005,516.556,0.0181158,516.556,0.0181023,516.556,0.0185563,
515.044,0.0194845,515.044,0.0191042,515.044,0.0192216,515.044,0.0192286,515.044,0.019593,
513.532,0.020696,513.532,0.0201411,513.532,0.0203615,513.532,0.0200897,513.532,0.0203794,
512.019,0.0217946,512.019,0.0212575,512.019,0.0213436,512.019,0.021236,512.019,0.0216583,
510.505,0.0227612,510.505,0.0220142,510.505,0.0222824,510.505,0.0222484,510.505,0.0226004,
508.992,0.0233606,508.992,0.0227979,508.992,0.023111,508.992,0.0229139,508.992,0.0231613,
507.477,0.0241412,507.477,0.0235338,507.477,0.0236415,507.477,0.0236317,507.477,0.0237314,
505.962,0.0245507,505.962,0.0242718,505.962,0.0243822,505.962,0.0242006,505.962,0.0245089,
504.447,0.0248491,504.447,0.0244411,504.447,0.0248286,504.447,0.0247538,504.447,0.0248135,
502.931,0.0251661,502.931,0.0248525,502.931,0.0251113,502.931,0.0251751,502.931,0.0252696,
501.567,0.0257018,501.567,0.0251598,501.567,0.0253407,501.567,0.0252969,501.567,0.0255268,
500.05,0.0259371,500.05,0.0255252,500.05,0.025339,500.05,0.0254965,500.05,0.0256475,
498.533,0.0258137,498.533,0.0253851,498.533,0.0254876,498.533,0.0256146,498.533,0.0258796,
497.015,0.0261334,497.015,0.0255413,497.015,0.025718,497.015,0.0255642,497.015,0.0260401,
495.497,0.0260266,495.497,0.0254965,495.497,0.0256264,495.497,0.0256014,495.497,0.0256726,
493.978,0.0257588,493.978,0.0251531,493.978,0.0252602,493.978,0.0251401,493.978,0.0253814,
492.459,0.0254423,492.459,0.0251226,492.459,0.0249701,492.459,0.0248912,492.459,0.0251831,
490.94,0.0254545,490.94,0.0248865,490.94,0.0250794,490.94,0.0249785,490.94,0.0251916,
489.572,0.0248312,489.572,0.0243855,489.572,0.0245092,489.572,0.024379,489.572,0.0247224,
488.051,0.0245767,488.051,0.0239982,488.051,0.0240984,488.051,0.0238983,488.051,0.0242126,
486.53,0.0241753,486.53,0.0236555,486.53,0.0239244,486.53,0.0236469,486.53,0.0238724,
485.009,0.0234536,485.009,0.0230827,485.009,0.0232393,485.009,0.0230925,485.009,0.0235076,
483.487,0.0231612,483.487,0.0229413,483.487,0.0228938,483.487,0.0229056,483.487,0.0230026,
481.965,0.0228596,481.965,0.0223822,481.965,0.0225642,481.965,0.0226703,481.965,0.022676,
480.442,0.0223221,480.442,0.0217906,480.442,0.0221805,480.442,0.02197,480.442,0.0220533,
479.071,0.0219759,479.071,0.0215862,479.071,0.0220266,479.071,0.0218213,479.071,0.0219579,
477.547,0.0219757,477.547,0.0215438,477.547,0.0218926,477.547,0.021642,477.547,0.0218899,
476.023,0.0221323,476.023,0.0217816,476.023,0.0220501,476.023,0.0217359,476.023,0.0222358,
474.499,0.0226228,474.499,0.0221628,474.499,0.0223008,474.499,0.0222766,474.499,0.0224129,
472.973,0.023196,472.973,0.0227703,472.973,0.0230542,472.973,0.0230371,472.973,0.0231352,
471.448,0.024044,471.448,0.0234251,471.448,0.0238563,471.448,0.0237442,471.448,0.0239476,
470.075,0.0250945,470.075,0.0243221,470.075,0.0248436,470.075,0.0248385,470.075,0.0247895,
468.548,0.0260901,468.548,0.0254887,468.548,0.0260018,468.548,0.0257933,468.548,0.0259739,
467.021,0.0274605,467.021,0.0270578,467.021,0.0272951,467.021,0.0273633,467.021,0.027168,
465.494,0.0287288,465.494,0.0282629,465.494,0.0285428,465.494,0.0285942,465.494,0.0284495,
463.966,0.0298637,463.966,0.0292085,463.966,0.0297267,463.966,0.0298875,463.966,0.0300425,
462.438,0.0309811,462.438,0.0304088,462.438,0.0308342,462.438,0.0309442,462.438,0.0309728,
461.062,0.031869,461.062,0.0314091,461.062,0.0318141,461.062,0.0317853,461.062,0.0321629,
459.533,0.0331475,459.533,0.0329475,459.533,0.0330967,459.533,0.033152,459.533,0.033575,
458.004,0.0340372,458.004,0.0335821,458.004,0.0340924,458.004,0.0339648,458.004,0.0343517,
456.474,0.0347367,456.474,0.0341197,456.474,0.0346361,456.474,0.0345785,456.474,0.0349207,
454.944,0.0354247,454.944,0.0348873,454.944,0.0352179,454.944,0.0354104,454.944,0.0358181,
453.566,0.0358777,453.566,0.0353549,453.566,0.0357884,453.566,0.0357481,453.566,0.0362199,
452.035,0.0364665,452.035,0.0361471,452.035,0.0366244,452.035,0.0365864,452.035,0.0370922,
450.503,0.0369575,450.503,0.0363133,450.503,0.0367321,450.503,0.0369301,450.503,0.0371107,
448.971,0.0371378,448.971,0.036737,448.971,0.0370561,448.971,0.0370866,448.971,0.037653,
447.439,0.0374199,447.439,0.0370992,447.439,0.0373144,447.439,0.0373657,447.439,0.0379821,
446.059,0.0378059,446.059,0.0373192,446.059,0.037919,446.059,0.0379634,446.059,0.0386441,
444.526,0.0381439,444.526,0.0375827,444.526,0.0379876,444.526,0.0380855,444.526,0.038611,
442.992,0.0380129,442.992,0.0374699,442.992,0.0380014,442.992,0.0380439,442.992,0.0385644,
441.458,0.0379107,441.458,0.0376445,441.458,0.0380126,441.458,0.0382017,441.458,0.0390913,
439.923,0.0382082,439.923,0.0378277,439.923,0.0382304,439.923,0.0385403,439.923,0.0390898,
438.542,0.0382331,438.542,0.0377494,438.542,0.0382158,438.542,0.0386155,438.542,0.039132,
437.007,0.037919,437.007,0.0374765,437.007,0.0379059,437.007,0.0379884,437.007,0.0389054,
435.471,0.0373409,435.471,0.0371308,435.471,0.0375,435.471,0.03761,435.471,0.0385683,
433.935,0.0374236,433.935,0.0369362,433.935,0.0373844,433.935,0.0377277,433.935,0.038477,
432.552,0.0372084,432.552,0.0367046,432.552,0.0375171,432.552,0.03748,432.552,0.0384884,
431.015,0.037149,431.015,0.0363935,431.015,0.0371238,431.015,0.0374493,431.015,0.0380962,
429.477,0.0370287,429.477,0.0363836,429.477,0.0372102,429.477,0.0372215,429.477,0.0382746,
427.939,0.0367328,427.939,0.0360619,427.939,0.0368757,427.939,0.0370982,427.939,0.0378178,
426.555,0.0367186,426.555,0.0360674,426.555,0.0366629,426.555,0.0368207,426.555,0.0379582,
425.016,0.0362059,425.016,0.0358117,425.016,0.0366404,425.016,0.0368413,425.016,0.037705,
423.477,0.0365699,423.477,0.0357179,423.477,0.03668008,423.477,0.0365236,423.477,0.0375463,
421.938,0.0363364,421.938,0.0358843,421.938,0.0364824,421.938,0.036711,421.938,0.0376992,
420.552,0.0360929,420.552,0.0353911,420.552,0.0365673,420.552,0.0365408,420.552,0.0376385,
419.012,0.0360236,419.012,0.0354564,419.012,0.0360618,419.012,0.0362763,419.012,0.0372289,
417.471,0.0356792,417.471,0.0349591,417.471,0.0358255,417.471,0.0360749,417.471,0.0371386,
415.93,0.0352421,415.93,0.0349191,415.93,0.0355034,415.93,0.0358601,415.93,0.0367277,
414.543,0.0350264,414.543,0.0343149,414.543,0.0352525,414.543,0.0354882,414.543,0.0365674,
413.001,0.0344849,413.001,0.033892,413.001,0.0349339,413.001,0.0351455,413.001,0.03602954,
411.459,0.0341772,411.459,0.0336706,411.459,0.0345472,411.459,0.0347594,411.459,0.035771,
410.071,0.033866,410.071,0.0334613,410.071,0.0343551,410.071,0.0346924,410.071,0.0355177,
408.528,0.0333158,408.528,0.0328578,408.528,0.0338873,408.528,0.0341462,408.528,0.0352572,
406.985,0.0332269,406.985,0.0322748,406.985,0.0333438,406.985,0.0339177,406.985,0.0347725,
405.441,0.0326322,405.441,0.0321376,405.441,0.0331596,405.441,0.0333209,405.441,0.0345298,
404.051,0.0321955,404.051,0.0315601,404.051,0.0325398,404.051,0.0329063,404.051,0.0340895,
402.507,0.0315813,402.507,0.030872,402.507,0.0318351,402.507,0.0322876,402.507,0.033491,
400.962,0.0311259,400.962,0.0303178,400.962,0.0314768,400.962,0.0318992,400.962,0.0332276,
399.571,0.0308044,399.571,0.0299899,399.571,0.0310319,399.571,0.031503,399.571,0.0327406,
398.026,0.030155,398.026,0.0298359,398.026,0.0307942,398.026,0.0309018,398.026,0.0322114,
396.48,0.0299857,396.48,0.029477,396.48,0.0305024,396.48,0.0310886,396.48,0.0321211,
394.933,0.029857,394.933,0.0291753,394.933,0.0301943,394.933,0.0306944,394.933,0.031713,
393.541,0.0297149,393.541,0.029041,393.541,0.0300736,393.541,0.030475,393.541,0.0319718,
391.994,0.0297874,391.994,0.0289336,391.994,0.0300044,391.994,0.030241,391.994,0.0321009,
390.447,0.0296549,390.447,0.0288627,390.447,0.0301115,390.447,0.0305757,390.447,0.0317334,
389.054,0.0296801,389.054,0.0291906,389.054,0.0300824,389.054,0.0306256,389.054,0.0321087,
387.506,0.0297298,387.506,0.029258,387.506,0.0302829,387.506,0.0305897,387.506,0.0322831,
385.957,0.0297397,385.957,0.0294374,385.957,0.0301245,385.957,0.0307788,385.957,0.0320551,
384.563,0.0302651,384.563,0.0295703,384.563,0.0306741,384.563,0.0310554,384.563,0.0324442,
383.014,0.0304258,383.014,0.0300368,383.014,0.0309809,383.014,0.0318924,383.014,0.0328849,
381.464,0.0311925,381.464,0.0304068,381.464,0.0314944,381.464,0.0321329,381.464,0.0336275,
380.069,0.031651,380.069,0.0309864,380.069,0.0321536,380.069,0.0326062,380.069,0.0341914,
378.519,0.0326853,378.519,0.0315386,378.519,0.0327585,378.519,0.0332378,378.519,0.034891,
376.968,0.0335092,376.968,0.0327995,376.968,0.0340816,376.968,0.0347433,376.968,0.0365545,
375.573,0.0343123,375.573,0.0336702,375.573,0.0349316,375.573,0.0357582,375.573,0.0376696,
374.021,0.0352631,374.021,0.0345545,374.021,0.035849,374.021,0.0367413,374.021,0.0386164,
372.47,0.036439,372.47,0.0355264,372.47,0.0368081,372.47,0.0374639,372.47,0.0401277,
371.073,0.0370876,371.073,0.0364878,371.073,0.0377128,371.073,0.0383925,371.073,0.0409784,
369.52,0.0383594,369.52,0.0374798,369.52,0.0388598,369.52,0.0397797,369.52,0.0423805,
367.968,0.0393248,367.968,0.0386169,367.968,0.0396867,367.968,0.0406673,367.968,0.0428666,
366.57,0.0403714,366.57,0.0395997,366.57,0.0408086,366.57,0.0416233,366.57,0.0436911,
365.016,0.0412212,365.016,0.0405763,365.016,0.041813,365.016,0.04258,365.016,0.0443161,
363.463,0.0418587,363.463,0.04104,363.463,0.0425173,363.463,0.0431461,363.463,0.0451444,
362.064,0.0425236,362.064,0.0416317,362.064,0.0431466,362.064,0.0440189,362.064,0.0457518,
360.51,0.0432798,360.51,0.042422,360.51,0.0439637,360.51,0.0446131,360.51,0.046501,
358.955,0.0434018,358.955,0.0425068,358.955,0.0441176,358.955,0.044703,358.955,0.0466469,
357.555,0.0441027,357.555,0.0431263,357.555,0.044579,357.555,0.0453848,357.555,0.0471886,
356,0.0442702,356,0.043408,356,0.0447697,356,0.0455938,356,0.0476812,
354.444,0.0445995,354.444,0.0438846,354.444,0.0452558,354.444,0.0461189,354.444,0.0480249,
353.044,0.0447497,353.044,0.0439808,353.044,0.0454605,353.044,0.0461685,353.044,0.0483822,
351.487,0.0446424,351.487,0.0438395,351.487,0.0452119,351.487,0.0462868,351.487,0.0485204,
349.93,0.0449545,349.93,0.0441057,349.93,0.0455878,349.93,0.0466088,349.93,0.0486954,
348.529,0.0450747,348.529,0.0440992,348.529,0.0455768,348.529,0.0466972,348.529,0.0488552,
346.972,0.0450099,346.972,0.044008,346.972,0.0454581,346.972,0.0463314,346.972,0.0487678,
345.57,0.0450137,345.57,0.044399,345.57,0.0456463,345.57,0.0467245,345.57,0.0491476,
344.012,0.0451394,344.012,0.0440525,344.012,0.0458834,344.012,0.0467749,344.012,0.0491727,
342.453,0.0449054,342.453,0.0440523,342.453,0.045561,342.453,0.0467635,342.453,0.0491184,
341.05,0.0448793,341.05,0.0439356,341.05,0.0456832,341.05,0.046718,341.05,0.0490639,
339.491,0.044643,339.491,0.0437642,339.491,0.0454879,339.491,0.0465543,339.491,0.0490571,
337.932,0.0445914,337.932,0.0436992,337.932,0.0453418,337.932,0.0465933,337.932,0.048993,
336.529,0.0442872,336.529,0.0432984,336.529,0.0450172,336.529,0.0464093,336.529,0.0489043,
334.969,0.044239,334.969,0.0431785,334.969,0.0450785,334.969,0.0461961,334.969,0.048898,
333.564,0.043908,333.564,0.0428735,333.564,0.0448036,333.564,0.04618,333.564,0.0489625,
332.004,0.043695,332.004,0.0428812,332.004,0.0446485,332.004,0.0461103,332.004,0.0487902,
330.443,0.0433279,330.443,0.0426809,330.443,0.0443924,330.443,0.0459034,330.443,0.0488652,
329.038,0.0431887,329.038,0.0424446,329.038,0.0443526,329.038,0.0459124,329.038,0.0487183,
327.476,0.0429386,327.476,0.0419934,327.476,0.0440134,327.476,0.0458444,327.476,0.0486703,
326.071,0.0429342,326.071,0.0421328,326.071,0.0441221,326.071,0.0458248,326.071,0.0489524,
324.509,0.0429457,324.509,0.0420671,324.509,0.0441764,324.509,0.0459776,324.509,0.0490842,
322.946,0.0432661,322.946,0.0422062,322.946,0.044414,322.946,0.0461656,322.946,0.0496061,
321.54,0.0434137,321.54,0.0422437,321.54,0.04439,321.54,0.0461749,321.54,0.0497576,
319.977,0.043563,319.977,0.0423014,319.977,0.0444863,319.977,0.0463084,319.977,0.0502523,
318.57,0.0440456,318.57,0.0426857,318.57,0.0448036,318.57,0.0468894,318.57,0.0507508,
317.007,0.0446269,317.007,0.0429092,317.007,0.044975,317.007,0.0469716,317.007,0.0508901,
315.443,0.0450376,315.443,0.0430749,315.443,0.0452476,315.443,0.0472537,315.443,0.0513758,
314.035,0.0456376,314.035,0.0434137,314.035,0.0456471,314.035,0.0476601,314.035,0.0518534,
312.471,0.0461855,312.471,0.0436876,312.471,0.045818,312.471,0.0480326,312.471,0.0523061,
311.062,0.0467878,311.062,0.0438109,311.062,0.0460834,311.062,0.0480897,311.062,0.0523487,
309.497,0.0475164,309.497,0.0440048,309.497,0.0463347,309.497,0.0483997,309.497,0.052877,
307.932,0.0487973,307.932,0.0446153,307.932,0.0470363,307.932,0.0493296,307.932,0.0538482,
306.523,0.0495023,306.523,0.0448026,306.523,0.0472268,306.523,0.0496849,306.523,0.0543538,
304.957,0.0505459,304.957,0.0449456,304.957,0.0475616,304.957,0.0501743,304.957,0.0551036,
303.548,0.0515489,303.548,0.0451711,303.548,0.0479337,303.548,0.05089,303.548,0.0562306,
301.981,0.0528956,301.981,0.0456954,301.981,0.0486622,301.981,0.0521192,301.981,0.0581525,
300.571,0.0542356,300.571,0.0461243,300.571,0.049892,300.571,0.0539896,300.571,0.0611451,
299.004,0.0562727,299.004,0.0466857,299.004,0.0516749,299.004,0.0570868,299.004,0.0667695,
297.437,0.059243,297.437,0.0483329,297.437,0.055197,297.437,0.0631208,297.437,0.0764883,
296.026,0.0636215,296.026,0.0504322,296.026,0.0613677,296.026,0.0735168,296.026,0.0950519,
294.458,0.0716377,294.458,0.0549828,294.458,0.0735954,294.458,0.0942303,294.458,0.130719,
293.047,0.0831137,293.047,0.0617246,293.047,0.0918557,293.047,0.125356,293.047,0.185114,
291.479,0.102711,291.479,0.0732387,291.479,0.12277,291.479,0.17972,291.479,0.278366,
290.067,0.127816,290.067,0.0885155,290.067,0.166188,290.067,0.251833,290.067,0.403696,
288.498,0.181274,288.498,0.120217,288.498,0.254869,288.498,0.398272,288.498,0.658026,
286.929,0.233581,286.929,0.151323,286.929,0.345162,286.929,0.555872,286.929,0.942841,
285.517,0.273995,285.517,0.177164,285.517,0.419651,285.517,0.687252,285.517,1.1887,
283.947,0.303547,283.947,0.194307,283.947,0.470293,283.947,0.774916,283.947,1.35401,
282.534,0.310432,282.534,0.197847,282.534,0.48456,282.534,0.803536,282.534,1.41567,
280.964,0.309337,280.964,0.196922,280.964,0.482606,280.964,0.804052,280.964,1.42247,
279.551,0.308371,279.551,0.195949,279.551,0.480422,279.551,0.800327,279.551,1.41759,
277.98,0.307252,277.98,0.195146,277.98,0.478458,277.98,0.798129,277.98,1.41386,
276.566,0.30311,276.566,0.192306,276.566,0.471702,276.566,0.786569,276.566,1.396,
274.995,0.293201,274.995,0.186205,274.995,0.454588,274.995,0.759025,274.995,1.35269,
273.423,0.276508,273.423,0.175812,273.423,0.427133,273.423,0.711773,273.423,1.27029,
272.009,0.26254,272.009,0.1671,272.009,0.40255,272.009,0.670023,272.009,1.19542,
270.437,0.245294,270.437,0.156492,270.437,0.371976,270.437,0.621415,270.437,1.10559,
269.022,0.230114,269.022,0.147159,269.022,0.346584,269.022,0.576385,269.022,1.02556,
267.449,0.216456,267.449,0.139136,267.449,0.324592,267.449,0.537894,267.449,0.956346,
266.034,0.203441,266.034,0.131297,266.034,0.302222,266.034,0.499104,266.034,0.885103,
264.461,0.187122,264.461,0.121215,264.461,0.276484,264.461,0.454407,264.461,0.807262,
263.045,0.177629,263.045,0.114741,263.045,0.261536,263.045,0.430331,263.045,0.761127,
261.472,0.16971,261.472,0.110159,261.472,0.249361,261.472,0.408442,261.472,0.721405,
260.055,0.167535,260.055,0.109178,260.055,0.246289,260.055,0.403085,260.055,0.709421,
258.481,0.169103,258.481,0.110273,258.481,0.250641,258.481,0.410142,258.481,0.720531,
257.065,0.175444,257.065,0.114373,257.065,0.264124,257.065,0.432407,257.065,0.762371,
255.49,0.193205,255.49,0.12519,255.49,0.296077,255.49,0.487644,255.49,0.855346,
254.073,0.216217,254.073,0.13879,254.073,0.338216,254.073,0.557489,254.073,0.983267,
252.498,0.242066,252.498,0.15363,252.498,0.381891,252.498,0.635197,252.498,1.12967,
250.923,0.279208,250.923,0.177474,250.923,0.451238,250.923,0.756129,250.923,1.34435,
249.508,0.318675,249.508,0.201398,249.508,0.523696,249.508,0.882539,249.508,1.57007,
247.942,0.357154,247.942,0.225288,247.942,0.594516,247.942,1.01,247.942,1.80985,
246.533,0.389439,246.533,0.244903,246.533,0.653832,246.533,1.10919,246.533,1.98722,
244.966,0.433017,244.966,0.269879,244.966,0.730827,244.966,1.24538,244.966,2.22831,
243.556,0.469229,243.556,0.292855,243.556,0.795741,243.556,1.36176,243.556,2.41776,
241.989,0.504498,241.989,0.314365,241.989,0.86215,241.989,1.47425,241.989,2.58079,
240.578,0.542493,240.578,0.338773,240.578,0.930743,240.578,1.59304,240.578,2.65307,
239.011,0.581796,239.011,0.36092,239.011,0.999424,239.011,1.70374,239.011,2.78901,
237.443,0.616204,237.443,0.384151,237.443,1.06199,237.443,1.8118,237.443,2.90961,
236.032,0.650878,236.032,0.405109,236.032,1.12201,236.032,1.90528,236.032,2.92543,
234.464,0.698916,234.464,0.4354,234.464,1.20818,234.464,2.05839,234.464,3.12409,
233.052,0.75103,233.052,0.466999,233.052,1.29971,233.052,2.20351,233.052,3.11997,
231.484,0.79907,231.484,0.498433,231.484,1.38729,231.484,2.33939,231.484,3.27643,
230.072,0.858076,230.072,0.533155,230.072,1.48757,230.072,2.50417,230.072,3.51274,
228.503,0.928635,228.503,0.576222,228.503,1.60531,228.503,2.65397,228.503,3.38259,
226.934,1.03475,226.934,0.648118,226.934,1.78405,226.934,2.87624,226.934,3.31775,
225.521,1.18537,225.521,0.737595,225.521,2.03918,225.521,3.06917,225.521,3.34464,
223.952,1.37886,223.952,0.868014,223.952,2.33718,223.952,3.17134,223.952,3.22209,
222.539,1.618,222.539,1.01707,222.539,2.63811,222.539,3.21459,222.539,3.31433,
220.969,1.92768,220.969,1.21249,220.969,2.87686,220.969,3.13276,220.969,3.18501,
219.555,2.26767,219.555,1.46293,219.555,3.09664,219.555,3.30369,219.555,3.33484,
217.985,2.58598,217.985,1.7477,217.985,3.15068,217.985,3.25641,217.985,3.20621,
216.572,2.77735,216.572,1.95901,216.572,3.14748,216.572,3.19969,216.572,3.20441,
215.001,2.90887,215.001,2.1644,215.001,3.15648,215.001,3.21159,215.001,3.2653,
213.43,2.94851,213.43,2.2858,213.43,3.15194,213.43,3.19419,213.43,3.21411,
212.016,2.94141,212.016,2.36052,212.016,3.13804,212.016,3.2638,212.016,3.12835,
210.444,2.94945,210.444,2.39246,210.444,3.21515,210.444,3.14778,210.444,3.19355,
209.03,2.98784,209.03,2.36467,209.03,3.18187,209.03,3.2438,209.03,3.15389,
207.458,2.98361,207.458,2.32696,207.458,3.21426,207.458,3.21699,207.458,3.24038,
206.043,3.00299,206.043,2.24522,206.043,3.17436,206.043,3.12183,206.043,3.22715,
204.471,2.95343,204.471,2.10994,204.471,3.13953,204.471,3.12641,204.471,3.24822,
203.056,2.80711,203.056,1.95946,203.056,3.13592,203.056,3.13487,203.056,3.29125,
201.483,2.64314,201.483,1.80641,201.483,3.02551,201.483,2.97631,201.483,3.04583,
200.068,2.50758,200.068,1.66585,200.068,3.06183,200.068,3.04649,200.068,3.04101,

is_2_3_31uM,
is_2_3_31uM
Collection Time: 4/29/2024 11:14:23 AM
Operator Name  :
Scan Software Version: 3.00(339)
Parameter List :
Instrument                        Cary 50
Instrument Version                3.00
Start (nm)                        800.0
Stop (nm)                         200.0
X Mode                            Nanometers
Y Mode                            Abs
UV-Vis Scan Rate (nm/min)         300.00
UV-Vis Data Interval (nm)         0.50
UV-Vis Ave. Time (sec)            0.1000
Beam Mode                         Dual Beam
Baseline Correction               Off
Cycle Mode                        Off
Comments
Method Log     :
Method Name    :
Date/Time stamp: 4/20/2024 5:05:46 PM
Method Modifications:
UVVIS SAT Changed: 4/29/2024 11:08:58 AM, Old:0.0125, New:0.1000
Common SAT Changed: 4/29/2024 11:08:58 AM, Old:0.0125, New:0.1000
Common Interval nm Changed: 4/29/2024 11:08:59 AM, Old:     5.00, New:     0.50
End Method Modifications
<Current Wavelength> , 200.5

is_2_3_15uM,
is_2_3_15uM
Collection Time: 4/29/2024 11:19:25 AM
Operator Name  :
Scan Software Version: 3.00(339)
Parameter List :
Instrument                        Cary 50
Instrument Version                3.00
Start (nm)                        800.0
Stop (nm)                         200.0
X Mode                            Nanometers
Y Mode                            Abs
UV-Vis Scan Rate (nm/min)         300.00
UV-Vis Data Interval (nm)         0.50
UV-Vis Ave. Time (sec)            0.1000
Beam Mode                         Dual Beam
Baseline Correction               Off
Cycle Mode                        Off
Comments
Method Log     :
Method Name    :
Date/Time stamp: 4/20/2024 5:05:46 PM
Method Modifications:
UVVIS SAT Changed: 4/29/2024 11:08:58 AM, Old:0.0125, New:0.1000
Common SAT Changed: 4/29/2024 11:08:58 AM, Old:0.0125, New:0.1000
Common Interval nm Changed: 4/29/2024 11:08:59 AM, Old:     5.00, New:     0.50
End Method Modifications
<Current Wavelength> , 200.5

is_2_3_62uM,
is_2_3_62uM
Collection Time: 4/29/2024 11:22:35 AM
Operator Name  :
Scan Software Version: 3.00(339)
Parameter List :
Instrument                        Cary 50
Instrument Version                3.00
Start (nm)                        800.0
Stop (nm)                         200.0
X Mode                            Nanometers
Y Mode                            Abs
UV-Vis Scan Rate (nm/min)         300.00
UV-Vis Data Interval (nm)         0.50
UV-Vis Ave. Time (sec)            0.1000
Beam Mode                         Dual Beam
Baseline Correction               Off
Cycle Mode                        Off
Comments
Method Log     :
Method Name    :
Date/Time stamp: 4/20/2024 5:05:46 PM
Method Modifications:
UVVIS SAT Changed: 4/29/2024 11:08:58 AM, Old:0.0125, New:0.1000
Common SAT Changed: 4/29/2024 11:08:58 AM, Old:0.0125, New:0.1000
Common Interval nm Changed: 4/29/2024 11:08:59 AM, Old:     5.00, New:     0.50
End Method Modifications
<Current Wavelength> , 200.5

is_2_3_125uM,
is_2_3_125uM
Collection Time: 4/29/2024 11:26:27 AM
Operator Name  :
Scan Software Version: 3.00(339)
Parameter List :
Instrument                        Cary 50
Instrument Version                3.00
Start (nm)                        800.0
Stop (nm)                         200.0
X Mode                            Nanometers
Y Mode                            Abs
UV-Vis Scan Rate (nm/min)         300.00
UV-Vis Data Interval (nm)         0.50
UV-Vis Ave. Time (sec)            0.1000
Beam Mode                         Dual Beam
Baseline Correction               Off
Cycle Mode                        Off
Comments
Method Log     :
Method Name    :
Date/Time stamp: 4/20/2024 5:05:46 PM
Method Modifications:
UVVIS SAT Changed: 4/29/2024 11:08:58 AM, Old:0.0125, New:0.1000
Common SAT Changed: 4/29/2024 11:08:58 AM, Old:0.0125, New:0.1000
Common Interval nm Changed: 4/29/2024 11:08:59 AM, Old:     5.00, New:     0.50
End Method Modifications
<Current Wavelength> , 200.5

is_2_3_250uM1,
is_2_3_250uM1
Collection Time: 4/29/2024 11:30:30 AM
Operator Name  :
Scan Software Version: 3.00(339)
Parameter List :
Instrument                        Cary 50
Instrument Version                3.00
Start (nm)                        800.0
Stop (nm)                         200.0
X Mode                            Nanometers
Y Mode                            Abs
UV-Vis Scan Rate (nm/min)         300.00
UV-Vis Data Interval (nm)         0.50
UV-Vis Ave. Time (sec)            0.1000
Beam Mode                         Dual Beam
Baseline Correction               Off
Cycle Mode                        Off
Comments
Method Log     :
Method Name    :
Date/Time stamp: 4/20/2024 5:05:46 PM
Method Modifications:
UVVIS SAT Changed: 4/29/2024 11:08:58 AM, Old:0.0125, New:0.1000
Common SAT Changed: 4/29/2024 11:08:58 AM, Old:0.0125, New:0.1000
Common Interval nm Changed: 4/29/2024 11:08:59 AM, Old:     5.00, New:     0.50
End Method Modifications
<Current Wavelength> , 200.5