File: silicates_UV_vis/Allylsilicates_plot/is_2_5_allyl_nitrile.csv
is_2_5_7uM,,is_2_5_15uM1,,is_2_5_31uM,,is_2_5_62uM,,is_2_5_125uM,,is_2_5_250uM1,,
Wavelength (nm),Abs,Wavelength (nm),Abs,Wavelength (nm),Abs,Wavelength (nm),Abs,Wavelength (nm),Abs,Wavelength (nm),Abs,
799.953,-0.000330852,799.953,0.000673661,799.953,-0.000929708,799.953,0.00389291,799.953,0.00264012,799.953,0.00442795,
798.565,0.000750643,798.565,0.000618234,798.565,0.000180463,798.565,0.00418515,798.565,0.00309443,798.565,0.00461654,
797.037,0.000531065,797.037,0.000351337,797.037,-0.000113883,797.037,0.00367135,797.037,0.00273061,797.037,0.00424368,
795.509,0.000331648,795.509,-0.000312383,795.509,-0.000282479,795.509,0.00367297,795.509,0.0022506,795.509,0.00421816,
793.979,-0.000117455,793.979,0.000156069,793.979,-0.000436684,793.979,0.0032935,793.979,0.00191855,793.979,0.00409617,
792.449,-0.000617769,792.449,-0.00054068,792.449,-0.000149026,792.449,0.00354444,792.449,0.00184721,792.449,0.00376477,
791.057,-0.000489331,791.057,-0.000460526,791.057,-0.000643773,791.057,0.0028597,791.057,0.00234738,791.057,0.00349337,
789.524,-0.00124968,789.524,-0.000924904,789.524,-0.00150329,789.524,0.00266109,789.524,0.00115885,789.524,0.00287867,
787.991,-0.00133697,787.991,-0.000837793,787.991,-0.00227958,787.991,0.00248219,787.991,0.00122743,787.991,0.002949,
786.457,-0.00123074,786.457,-0.00136283,786.457,-0.0015767,786.457,0.00194741,786.457,0.000841461,786.457,0.0023287,
785.062,-0.00142367,785.062,-0.00177669,785.062,-0.00205941,785.062,0.00218545,785.062,0.00096919,785.062,0.00262827,
783.526,-0.00217935,783.526,-0.00178087,783.526,-0.00240868,783.526,0.00145456,783.526,-0.000129411,783.526,0.00148342,
781.989,-0.00150442,781.989,-0.00120642,781.989,-0.00198964,781.989,0.00177198,781.989,0.000438263,781.989,0.00190945,
780.451,-0.00183573,780.451,-0.00128076,780.451,-0.00190955,780.451,0.00224514,780.451,7.38848e-05,780.451,0.00165641,
779.053,-0.00187212,779.053,-0.00196655,779.053,-0.00253526,779.053,0.00180629,779.053,0.000417094,779.053,0.00145349,
777.513,-0.00236203,777.513,-0.00243679,777.513,-0.00245542,777.513,0.00158847,777.513,7.61114e-05,777.513,0.00118925,
775.973,-0.00249908,775.973,-0.00208234,775.973,-0.0021707,775.973,0.00140516,775.973,-9.14714e-05,775.973,0.00148767,
774.432,-0.00259229,774.432,-0.00218538,774.432,-0.00275684,774.432,0.0013915,774.432,-0.000459543,774.432,0.00159811,
773.03,-0.00265774,773.03,-0.00246608,773.03,-0.00247071,773.03,0.00158132,773.03,-0.000416771,773.03,0.00109688,
771.487,-0.00277772,771.487,-0.00241449,771.487,-0.00292883,771.487,0.00100507,771.487,-0.000457837,771.487,0.000937929,
769.943,-0.00249609,769.943,-0.00318572,769.943,-0.00291752,769.943,0.00122621,769.943,-0.000276322,769.943,0.00107339,
768.539,-0.00280648,768.539,-0.00302113,768.539,-0.00327976,768.539,0.00132604,768.539,-0.000887861,768.539,0.00115351,
766.993,-0.00298097,766.993,-0.00311962,766.993,-0.00336741,766.993,0.000614242,766.993,-0.00108539,766.993,0.00106473,
765.447,-0.00322154,765.447,-0.00355683,765.447,-0.00340363,765.447,0.000833603,765.447,-0.000842082,765.447,0.00084224,
764.04,-0.00366398,764.04,-0.0035805,764.04,-0.00372558,764.04,0.000597652,764.04,-0.000808029,764.04,0.000808861,
762.492,-0.00368123,762.492,-0.00346783,762.492,-0.00401755,762.492,0.000436165,762.492,-0.00129831,762.492,0.000528706,
760.943,-0.00369745,760.943,-0.00426437,760.943,-0.00387678,760.943,8.6416e-05,760.943,-0.0013125,760.943,0.000539669,
759.534,-0.00419048,759.534,-0.00418987,759.534,-0.00474318,759.534,-0.000338508,759.534,-0.00163839,759.534,0.000116399,
757.983,-0.00457406,757.983,-0.0044742,757.983,-0.00456258,757.983,-0.000258472,757.983,-0.00202556,757.983,-0.000625472,
756.432,-0.00462293,756.432,-0.00468675,756.432,-0.00484452,756.432,-0.000710609,756.432,-0.00204967,756.432,-0.000764361,
755.02,-0.00478271,755.02,-0.00494311,755.02,-0.00515789,755.02,-0.000849109,755.02,-0.00216457,755.02,-0.00100554,
753.467,-0.00514085,753.467,-0.00526546,753.467,-0.00578272,753.467,-0.00142806,753.467,-0.00241001,753.467,-0.000982761,
752.054,-0.00546224,752.054,-0.00516541,752.054,-0.00588207,752.054,-0.00165004,752.054,-0.00286023,752.054,-0.000917981,
750.499,-0.00578895,750.499,-0.00544838,750.499,-0.00621271,750.499,-0.00193594,750.499,-0.00329949,750.499,-0.00189625,
748.943,-0.00603512,748.943,-0.00594438,748.943,-0.00647267,748.943,-0.0022904,748.943,-0.00360587,748.943,-0.00188006,
747.528,-0.00658074,747.528,-0.00645563,747.528,-0.00676091,747.528,-0.00226001,747.528,-0.00387857,747.528,-0.00205086,
745.971,-0.00676458,745.971,-0.00666594,745.971,-0.00709124,745.971,-0.00250062,745.971,-0.00400021,745.971,-0.00205967,
744.554,-0.00673965,744.554,-0.00717099,744.554,-0.00742508,744.554,-0.00303753,744.554,-0.00429246,744.554,-0.0027715,
742.995,-0.00756736,742.995,-0.0074546,742.995,-0.00789234,742.995,-0.00326034,742.995,-0.00468024,742.995,-0.00249676,
741.435,-0.00818168,741.435,-0.00820901,741.435,-0.00861179,741.435,-0.00383316,741.435,-0.00592135,741.435,-0.00359462,
740.016,-0.00849473,740.016,-0.00874977,740.016,-0.00882486,740.016,-0.00451652,740.016,-0.00612599,740.016,-0.00405997,
738.454,-0.00882618,738.454,-0.00836738,738.454,-0.00866284,738.454,-0.00407443,738.454,-0.00596823,738.454,-0.00388334,
737.034,-0.00917947,737.034,-0.00936207,737.034,-0.0097371,737.034,-0.00503641,737.034,-0.00686305,737.034,-0.0043328,
735.47,-0.00909273,735.47,-0.00929224,735.47,-0.009422,735.47,-0.00504266,735.47,-0.00674501,735.47,-0.004607,
734.048,-0.00859818,734.048,-0.00887832,734.048,-0.00923771,734.048,-0.00481339,734.048,-0.0064717,734.048,-0.00441475,
732.483,-0.00876113,732.483,-0.00862179,732.483,-0.00931317,732.483,-0.00455233,732.483,-0.00616132,732.483,-0.00408254,
731.06,-0.00911332,731.06,-0.00944454,731.06,-0.00958839,731.06,-0.00519068,731.06,-0.0067526,731.06,-0.00469586,
729.493,-0.0099401,729.493,-0.0101745,729.493,-0.0103535,729.493,-0.0060799,729.493,-0.0073443,729.493,-0.0053049,
728.068,-0.010754,728.068,-0.0107778,728.068,-0.0113599,728.068,-0.00665396,728.068,-0.00830344,728.068,-0.00577726,
726.5,-0.0119534,726.5,-0.0119785,726.5,-0.0123877,726.5,-0.00799218,726.5,-0.00973917,726.5,-0.00685117,
724.931,-0.0132685,724.931,-0.0131117,724.931,-0.013561,724.931,-0.00871866,724.931,-0.0109088,724.931,-0.00770267,
723.504,-0.0139202,723.504,-0.0135897,723.504,-0.013998,723.504,-0.00953481,723.504,-0.0113,723.504,-0.00856798,
721.933,-0.0142988,721.933,-0.0142479,721.933,-0.0147538,721.933,-0.00999237,721.933,-0.0119662,721.933,-0.00897251,
720.505,-0.0149201,720.505,-0.0148699,720.505,-0.0149758,720.505,-0.0106153,720.505,-0.012508,720.505,-0.00964536,
718.932,-0.0146463,718.932,-0.0146649,718.932,-0.0151811,718.932,-0.0104307,718.932,-0.0122221,718.932,-0.00977152,
717.502,-0.0147746,717.502,-0.0148503,717.502,-0.015176,717.502,-0.0106072,717.502,-0.0124207,717.502,-0.0101199,
715.928,-0.0142956,715.928,-0.0142328,715.928,-0.0148737,715.928,-0.0101914,715.928,-0.0121038,715.928,-0.00973021,
714.497,-0.0137948,714.497,-0.013856,714.497,-0.0140595,714.497,-0.00959908,714.497,-0.0113914,714.497,-0.00949155,
713.065,-0.0131334,713.065,-0.0128435,713.065,-0.0135146,713.065,-0.00880746,713.065,-0.0106959,713.065,-0.00898909,
711.488,-0.0119742,711.488,-0.0120579,711.488,-0.0123998,711.488,-0.00785726,711.488,-0.0095495,711.488,-0.00753902,
710.055,-0.0106762,710.055,-0.0106198,710.055,-0.0108079,710.055,-0.00640304,710.055,-0.00820215,710.055,-0.00655942,
708.477,-0.00883734,708.477,-0.00880852,708.477,-0.00933511,708.477,-0.00468173,708.477,-0.00686631,708.477,-0.00509587,
707.042,-0.00759178,707.042,-0.00741571,707.042,-0.00794257,707.042,-0.00295768,707.042,-0.00517016,707.042,-0.00322005,
705.463,-0.00496927,705.463,-0.0048974,705.463,-0.00557388,705.463,-0.000292051,705.463,-0.00263958,705.463,-0.00116589,
704.026,-0.00341888,704.026,-0.0032849,704.026,-0.00360848,704.026,0.0010817,704.026,-0.000717639,704.026,0.000688621,
702.445,-0.00119764,702.445,-0.00123017,702.445,-0.00138791,702.445,0.00330769,702.445,0.00116641,702.445,0.00253635,
701.007,0.00096107,701.007,0.000879071,701.007,0.0007111,701.007,0.00567582,701.007,0.00318261,701.007,0.00482694,
699.569,0.0029917,699.569,0.0028621,699.569,0.00213592,699.569,0.00750195,699.569,0.00513322,699.569,0.00665312,
697.985,0.00461432,697.985,0.00466432,697.985,0.0042075,697.985,0.00940102,697.985,0.00689599,697.985,0.00837474,
696.545,0.00631076,696.545,0.0067836,696.545,0.00607701,696.545,0.0110834,696.545,0.00883687,696.545,0.0104212,
694.961,0.00820693,694.961,0.00835962,694.961,0.0078703,694.961,0.0127082,694.961,0.0105443,694.961,0.0120505,
693.519,0.00951632,693.519,0.00988624,693.519,0.00934256,693.519,0.0139806,693.519,0.0118074,693.519,0.0132234,
691.933,0.0111962,691.933,0.0111466,691.933,0.0110545,691.933,0.0159272,691.933,0.0139298,691.933,0.0151747,
690.49,0.0126241,690.49,0.0123569,690.49,0.0116912,690.49,0.0169027,690.49,0.014819,690.49,0.0162985,
689.046,0.0134245,689.046,0.0133863,689.046,0.0129435,689.046,0.017992,689.046,0.0157191,689.046,0.0176336,
687.458,0.0139126,687.458,0.0142509,687.458,0.0141524,687.458,0.0189061,687.458,0.0167914,687.458,0.0183536,
686.013,0.0158335,686.013,0.0160202,686.013,0.0157916,686.013,0.0204471,686.013,0.0178838,686.013,0.0199204,
684.567,0.0158893,684.567,0.0156786,684.567,0.0155093,684.567,0.020452,684.567,0.0182424,684.567,0.0203188,
682.976,0.016575,682.976,0.0164838,682.976,0.0158059,682.976,0.0213975,682.976,0.0189177,682.976,0.0207361,
681.53,0.0171762,681.53,0.0170682,681.53,0.0166977,681.53,0.0218497,681.53,0.0195314,681.53,0.0213308,
679.937,0.0178424,679.937,0.0178807,679.937,0.0170996,679.937,0.0225388,679.937,0.0199003,679.937,0.0218727,
678.489,0.0181183,678.489,0.0178591,678.489,0.0178937,678.489,0.0228109,678.489,0.0204978,678.489,0.0225807,
677.04,0.0186931,677.04,0.0187024,677.04,0.018136,677.04,0.0230668,677.04,0.0204803,677.04,0.0228049,
675.445,0.01902,675.445,0.0194528,675.445,0.0186205,675.445,0.0234857,675.445,0.0206361,675.445,0.0229866,
673.995,0.0189079,673.995,0.0185666,673.995,0.0186632,673.995,0.0239371,673.995,0.0210439,673.995,0.0234228,
672.544,0.0192495,672.544,0.0186249,672.544,0.0184217,672.544,0.0239355,672.544,0.0215709,672.544,0.0231085,
670.947,0.0193236,670.947,0.019188,670.947,0.0189943,670.947,0.0244328,670.947,0.0213277,670.947,0.0235085,
669.495,0.0199193,669.495,0.0200795,669.495,0.0196463,669.495,0.0250345,669.495,0.0222607,669.495,0.0245376,
668.042,0.0191946,668.042,0.0189346,668.042,0.0186501,668.042,0.0242429,668.042,0.0216445,668.042,0.0233051,
666.443,0.0179878,666.443,0.0180058,666.443,0.017633,666.443,0.0229214,666.443,0.0202943,666.443,0.0226172,
664.988,0.0177261,664.988,0.0175768,664.988,0.0171253,664.988,0.0223211,664.988,0.0199297,664.988,0.022537,
663.533,0.0172451,663.533,0.0172072,663.533,0.0167991,663.533,0.0221002,663.533,0.0194775,663.533,0.0221655,
661.932,0.0167858,661.932,0.0166422,661.932,0.016323,661.932,0.021593,661.932,0.0192113,661.932,0.0216833,
660.476,0.0167987,660.476,0.0169453,660.476,0.0161229,660.476,0.0216314,660.476,0.0192746,660.476,0.0214735,
659.019,0.0168798,659.019,0.0167951,659.019,0.0164469,659.019,0.0218961,659.019,0.0188838,659.019,0.021588,
657.561,0.0166471,657.561,0.0167886,657.561,0.0161053,657.561,0.0215501,657.561,0.0191037,657.561,0.0214115,
655.957,0.0165409,655.957,0.0162401,655.957,0.0159789,655.957,0.0214293,655.957,0.0189881,655.957,0.0211066,
654.498,0.0164129,654.498,0.0165936,654.498,0.0158522,654.498,0.0213789,654.498,0.0187955,654.498,0.0210056,
653.039,0.016248,653.039,0.0164708,653.039,0.0159904,653.039,0.0214051,653.039,0.0191066,653.039,0.0207946,
651.433,0.0163596,651.433,0.0166562,651.433,0.0155988,651.433,0.0213862,651.433,0.0189801,651.433,0.0208517,
649.972,0.0169362,649.972,0.016868,649.972,0.0163521,649.972,0.0219423,649.972,0.0195498,649.972,0.0212874,
648.51,0.0162896,648.51,0.016184,648.51,0.0156301,648.51,0.0211027,648.51,0.0187519,648.51,0.0207285,
647.048,0.0162281,647.048,0.0163072,647.048,0.0158467,647.048,0.0212208,647.048,0.0189556,647.048,0.0206177,
645.439,0.0166001,645.439,0.0162006,645.439,0.0157113,645.439,0.0211145,645.439,0.0188215,645.439,0.0209754,
643.976,0.0168455,643.976,0.0169119,643.976,0.0164272,643.976,0.0216914,643.976,0.019725,643.976,0.0218445,
642.512,0.0162761,642.512,0.0162864,642.512,0.0160677,642.512,0.0211049,642.512,0.019059,642.512,0.0219562,
641.047,0.0163632,641.047,0.0164916,641.047,0.0157436,641.047,0.021511,641.047,0.0186243,641.047,0.0224631,
639.435,0.0162515,639.435,0.0161858,639.435,0.0158957,639.435,0.0212299,639.435,0.0188896,639.435,0.0228349,
637.969,0.0162883,637.969,0.016586,637.969,0.0158391,637.969,0.0213667,637.969,0.0186495,637.969,0.023418,
636.503,0.0164976,636.503,0.0163187,636.503,0.015832,636.503,0.0217021,636.503,0.0186204,636.503,0.0230051,
635.035,0.0163205,635.035,0.0162967,635.035,0.0158066,635.035,0.0214152,635.035,0.0188208,635.035,0.0226358,
633.568,0.0163024,633.568,0.0160942,633.568,0.0158888,633.568,0.0217984,633.568,0.0193406,633.568,0.0219429,
631.952,0.0164726,631.952,0.0164979,631.952,0.016026,631.952,0.0219778,631.952,0.018851,631.952,0.0216162,
630.483,0.0165704,630.483,0.0163643,630.483,0.0159592,630.483,0.0217992,630.483,0.0188599,630.483,0.021712,
629.013,0.0166934,629.013,0.0163869,629.013,0.0160053,629.013,0.0221004,629.013,0.0190965,629.013,0.0218925,
627.543,0.0169277,627.543,0.0167352,627.543,0.0161567,627.543,0.0220486,627.543,0.0192078,627.543,0.0219225,
626.072,0.0165462,626.072,0.016467,626.072,0.0163831,626.072,0.0222757,626.072,0.0192888,626.072,0.0222729,
624.454,0.0164929,624.454,0.0166311,624.454,0.0161632,624.454,0.0220803,624.454,0.019059,624.454,0.0221753,
622.981,0.0169398,622.981,0.0167446,622.981,0.0165634,622.981,0.0221755,622.981,0.0192561,622.981,0.0218229,
621.509,0.0170964,621.509,0.0167074,621.509,0.0163599,621.509,0.0223975,621.509,0.0192531,621.509,0.0220715,
620.035,0.0172071,620.035,0.0166262,620.035,0.0161003,620.035,0.0220662,620.035,0.0191864,620.035,0.0217863,
618.561,0.0165517,618.561,0.0165361,618.561,0.0163591,618.561,0.0223824,618.561,0.0192466,618.561,0.0216497,
616.939,0.016523,616.939,0.0166204,616.939,0.016238,616.939,0.0221304,616.939,0.0192044,616.939,0.0217006,
615.464,0.0166055,615.464,0.0165085,615.464,0.0160411,615.464,0.0222423,615.464,0.019253,615.464,0.0214709,
613.988,0.0163055,613.988,0.0161647,613.988,0.0160243,613.988,0.0221631,613.988,0.0189633,613.988,0.0212513,
612.512,0.0162788,612.512,0.0162596,612.512,0.0158165,612.512,0.0219333,612.512,0.0188327,612.512,0.0213174,
611.035,0.0161751,611.035,0.0160342,611.035,0.0157374,611.035,0.021892,611.035,0.0190759,611.035,0.0215218,
609.557,0.0161761,609.557,0.0160003,609.557,0.0156641,609.557,0.0221934,609.557,0.0190123,609.557,0.0212666,
607.931,0.0163206,607.931,0.015938,607.931,0.0156562,607.931,0.0220688,607.931,0.0188275,607.931,0.0214372,
606.453,0.0161517,606.453,0.0159263,606.453,0.0153831,606.453,0.0219574,606.453,0.0189653,606.453,0.0213477,
604.973,0.0161035,604.973,0.015845,604.973,0.0154553,604.973,0.0220735,604.973,0.0187738,604.973,0.0211273,
603.493,0.0162373,603.493,0.0159941,603.493,0.0155192,603.493,0.0218466,603.493,0.0189222,603.493,0.0211718,
602.013,0.0159266,602.013,0.0159104,602.013,0.0152671,602.013,0.0218142,602.013,0.0185793,602.013,0.0212676,
600.531,0.0159193,600.531,0.0156618,600.531,0.0152851,600.531,0.0216882,600.531,0.0186073,600.531,0.0207109,
599.05,0.0155986,599.05,0.0155385,599.05,0.0151427,599.05,0.0214079,599.05,0.018541,599.05,0.0207324,
597.568,0.0154837,597.568,0.0153453,597.568,0.0149881,597.568,0.0210553,597.568,0.0182544,597.568,0.0204868,
595.936,0.0155873,595.936,0.0154192,595.936,0.0151665,595.936,0.0211479,595.936,0.0185016,595.936,0.0204868,
594.453,0.0153869,594.453,0.0153955,594.453,0.0148944,594.453,0.0212004,594.453,0.0183476,594.453,0.020337,
592.969,0.0152208,592.969,0.0151541,592.969,0.0147306,592.969,0.0210979,592.969,0.0181924,592.969,0.0202953,
591.484,0.0151126,591.484,0.0152164,591.484,0.0145093,591.484,0.0209856,591.484,0.0182251,591.484,0.0199607,
589.999,0.0149025,589.999,0.0153636,589.999,0.0145315,589.999,0.0209082,589.999,0.0180776,589.999,0.0201104,
588.513,0.014966,588.513,0.0149184,588.513,0.014151,588.513,0.0209096,588.513,0.018125,588.513,0.0197384,
587.027,0.0147528,587.027,0.0149005,587.027,0.0142263,587.027,0.0205995,587.027,0.0178334,587.027,0.0198277,
585.54,0.0146207,585.54,0.0145047,585.54,0.0140015,585.54,0.0203199,585.54,0.0178335,585.54,0.0196729,
584.052,0.0143263,584.052,0.0144765,584.052,0.0138354,584.052,0.0204804,584.052,0.0174173,584.052,0.0194299,
582.564,0.0143413,582.564,0.014185,582.564,0.0135692,582.564,0.0202262,582.564,0.0171607,582.564,0.0190417,
580.927,0.0141067,580.927,0.0140842,580.927,0.0135111,580.927,0.0200119,580.927,0.0170939,580.927,0.0190424,
579.438,0.0139399,579.438,0.0137104,579.438,0.0131594,579.438,0.0195886,579.438,0.0170213,579.438,0.0188907,
577.948,0.0134497,577.948,0.0134748,577.948,0.0131003,577.948,0.0193414,577.948,0.0169099,577.948,0.0187125,
576.458,0.0133531,576.458,0.0132856,576.458,0.0127869,576.458,0.0192181,576.458,0.0163947,576.458,0.0186117,
574.967,0.0133862,574.967,0.0128803,574.967,0.0127045,574.967,0.0188473,574.967,0.016286,574.967,0.0182138,
573.475,0.0129048,573.475,0.012683,573.475,0.0122132,573.475,0.0186358,573.475,0.0159749,573.475,0.0181324,
571.983,0.0123734,571.983,0.0124517,571.983,0.012019,571.983,0.0184297,571.983,0.0155635,571.983,0.0176796,
570.491,0.0121954,570.491,0.0121627,570.491,0.0116504,570.491,0.0182095,570.491,0.0152728,570.491,0.0176948,
568.998,0.0118198,568.998,0.0117251,568.998,0.0113111,568.998,0.0177898,568.998,0.0149914,568.998,0.0173324,
567.504,0.0114496,567.504,0.0113165,567.504,0.0108587,567.504,0.0172955,567.504,0.0147183,567.504,0.0170614,
566.01,0.0111759,566.01,0.01118166,566.01,0.0106234,566.01,0.0170833,566.01,0.0143551,566.01,0.0163886,
564.515,0.0107187,564.515,0.0107104,564.515,0.0101371,564.515,0.0166226,564.515,0.0137251,564.515,0.0159105,
563.02,0.0104408,563.02,0.0103334,563.02,0.00975542,563.02,0.016463,563.02,0.0133909,563.02,0.0154823,
561.524,0.0099814,561.524,0.0100202,561.524,0.00949576,561.524,0.0160394,561.524,0.013037,561.524,0.014907,
560.028,0.0093509,560.028,0.00933857,560.028,0.00897061,560.028,0.015781,560.028,0.012664,560.028,0.0142739,
558.531,0.00917306,558.531,0.00908202,558.531,0.00847577,558.531,0.015398,558.531,0.0123706,558.531,0.0140486,
557.033,0.00885245,557.033,0.00847791,557.033,0.00805346,557.033,0.0148989,557.033,0.0118388,557.033,0.0136368,
555.535,0.00821759,555.535,0.0081809,555.535,0.00761071,555.535,0.014499,555.535,0.01162,555.535,0.0131481,
554.037,0.00768042,554.037,0.00780088,554.037,0.00734717,554.037,0.0139834,554.037,0.0110141,554.037,0.0126915,
552.538,0.0073572,552.538,0.00742129,552.538,0.00677895,552.538,0.0136781,552.538,0.0106095,552.538,0.0125115,
551.038,0.0069669,551.038,0.00691958,551.038,0.00641084,551.038,0.0132385,551.038,0.0101925,551.038,0.011923,
549.538,0.00651228,549.538,0.0064374,549.538,0.00581597,549.538,0.0126565,549.538,0.00963159,549.538,0.0114838,
548.038,0.0060694,548.038,0.00596045,548.038,0.00519921,548.038,0.0121414,548.038,0.00922182,548.038,0.0109829,
546.536,0.00573114,546.536,0.00565466,546.536,0.00512903,546.536,0.0119639,546.536,0.00883222,546.536,0.0106706,
545.035,0.00549007,545.035,0.00564118,545.035,0.00493268,545.035,0.0116442,545.035,0.00863695,545.035,0.0103758,
543.533,0.00540216,543.533,0.00529772,543.533,0.004651,543.533,0.0114179,543.533,0.00839564,543.533,0.0101183,
542.03,0.00514826,542.03,0.00503378,542.03,0.00443457,542.03,0.0113728,542.03,0.00825967,542.03,0.0100838,
540.527,0.00526319,540.527,0.00516769,540.527,0.00473487,540.527,0.0115576,540.527,0.00837023,540.527,0.010179,
539.023,0.00506345,539.023,0.00512974,539.023,0.00484495,539.023,0.0114622,539.023,0.00818156,539.023,0.0102862,
537.518,0.00557402,537.518,0.00544501,537.518,0.0049807,537.518,0.0117945,537.518,0.00865393,537.518,0.0103793,
536.014,0.00610972,536.014,0.00582893,536.014,0.00553165,536.014,0.0123379,536.014,0.00911125,536.014,0.0108845,
534.508,0.00629765,534.508,0.00628904,534.508,0.00588944,534.508,0.0127067,534.508,0.00952338,534.508,0.011351,
533.003,0.0072175,533.003,0.00710624,533.003,0.00681915,533.003,0.0135592,533.003,0.0103268,533.003,0.0121352,
531.496,0.00784908,531.496,0.00774769,531.496,0.007634,531.496,0.014347,531.496,0.010959,531.496,0.0130095,
529.989,0.00874642,529.989,0.00870799,529.989,0.0086246,529.989,0.015358,529.989,0.0118806,529.989,0.0142501,
528.482,0.00988119,528.482,0.00985931,528.482,0.00974186,528.482,0.0166147,528.482,0.0128887,528.482,0.015305,
526.974,0.0111501,526.974,0.0112886,526.974,0.0109348,526.974,0.017751,526.974,0.0143608,526.974,0.0164127,
525.466,0.012573,525.466,0.0126576,525.466,0.0124202,525.466,0.0191288,525.466,0.0159349,525.466,0.0179866,
523.957,0.0140474,523.957,0.013821,523.957,0.0139934,523.957,0.0207157,523.957,0.0171692,523.957,0.0195053,
522.447,0.0152937,522.447,0.0152242,522.447,0.015329,522.447,0.0220943,522.447,0.0184517,522.447,0.0207484,
520.937,0.0166281,520.937,0.0167665,520.937,0.0167587,520.937,0.023315,520.937,0.0200037,520.937,0.0222851,
519.427,0.0178414,519.427,0.0177217,519.427,0.018048,519.427,0.0243786,519.427,0.0212056,519.427,0.0237813,
518.067,0.0192094,518.067,0.0191077,518.067,0.0194556,518.067,0.0261341,518.067,0.0225409,518.067,0.0250873,
516.556,0.0207306,516.556,0.0204043,516.556,0.0209775,516.556,0.0274565,516.556,0.0239985,516.556,0.0262956,
515.044,0.021756,515.044,0.0215566,515.044,0.0223973,515.044,0.0286247,515.044,0.0251608,515.044,0.0272679,
513.532,0.0227149,513.532,0.0223173,513.532,0.0230666,513.532,0.029404,513.532,0.0263336,513.532,0.0285624,
512.019,0.023868,512.019,0.0236598,512.019,0.0244804,512.019,0.0306914,512.019,0.0274,512.019,0.029564,
510.505,0.0248336,510.505,0.0247009,510.505,0.0253846,510.505,0.031736,510.505,0.0284098,510.505,0.0304835,
508.992,0.0255209,508.992,0.0253119,508.992,0.0260504,508.992,0.0324236,508.992,0.0293656,508.992,0.0311836,
507.477,0.026357,507.477,0.0260413,507.477,0.0267475,507.477,0.0332096,507.477,0.0299435,507.477,0.0316161,
505.962,0.0267795,505.962,0.026493,505.962,0.0274535,505.962,0.0338498,505.962,0.0302944,505.962,0.0323001,
504.447,0.0272961,504.447,0.0271001,504.447,0.0277502,504.447,0.0343825,504.447,0.0309006,504.447,0.0328013,
502.931,0.0276978,502.931,0.0275474,502.931,0.0283463,502.931,0.0348511,502.931,0.0314138,502.931,0.0333774,
501.567,0.02783,501.567,0.0276858,501.567,0.0285516,501.567,0.0351354,501.567,0.0315294,501.567,0.0334075,
500.05,0.028085,500.05,0.0280841,500.05,0.0286312,500.05,0.0352736,500.05,0.0318007,500.05,0.0336124,
498.533,0.0282041,498.533,0.0280284,498.533,0.0288327,498.533,0.0353815,498.533,0.0319938,498.533,0.033835,
497.015,0.0280865,497.015,0.0280357,497.015,0.0286736,497.015,0.0354038,497.015,0.0320181,497.015,0.0336222,
495.497,0.0281056,495.497,0.0280155,495.497,0.0285855,495.497,0.0353658,495.497,0.0318365,495.497,0.033687,
493.978,0.0278672,493.978,0.0275637,493.978,0.0281482,493.978,0.0349698,493.978,0.0317281,493.978,0.0334046,
492.459,0.0277473,492.459,0.0273668,492.459,0.027845,492.459,0.0346042,492.459,0.0315605,492.459,0.0331115,
490.94,0.0276861,490.94,0.0273892,490.94,0.0280068,490.94,0.0347738,490.94,0.0315527,490.94,0.0334172,
489.572,0.0271017,489.572,0.0268204,489.572,0.0269299,489.572,0.0343079,489.572,0.0310657,489.572,0.0328243,
488.051,0.0266831,488.051,0.0264681,488.051,0.0266,488.051,0.0337231,488.051,0.0305209,488.051,0.0328213,
486.53,0.02669,486.53,0.0260411,486.53,0.0263305,486.53,0.0337175,486.53,0.0305165,486.53,0.0323278,
485.009,0.0259305,485.009,0.0255986,485.009,0.0253915,485.009,0.0329521,485.009,0.0299188,485.009,0.0319095,
483.487,0.0252905,483.487,0.0250531,483.487,0.0247774,483.487,0.0327132,483.487,0.0294628,483.487,0.0313781,
481.965,0.0251474,481.965,0.0249016,481.965,0.0245873,481.965,0.0325711,481.965,0.0293363,481.965,0.0313817,
480.442,0.0246799,480.442,0.0241923,480.442,0.0240467,480.442,0.0321301,480.442,0.0288457,480.442,0.0308192,
479.071,0.0245534,479.071,0.0241843,479.071,0.0236835,479.071,0.0320469,479.071,0.0287008,479.071,0.0308424,
477.547,0.0241845,477.547,0.0239429,477.547,0.0237038,477.547,0.0319495,477.547,0.0284404,477.547,0.0309012,
476.023,0.0244289,476.023,0.0239381,476.023,0.0240286,476.023,0.0322288,476.023,0.0286165,476.023,0.0306075,
474.499,0.0252411,474.499,0.024403,474.499,0.0242013,474.499,0.032498,474.499,0.0291986,474.499,0.0310066,
472.973,0.0259858,472.973,0.0254064,472.973,0.0248688,472.973,0.0333428,472.973,0.0298898,472.973,0.0317579,
471.448,0.0263453,471.448,0.0260778,471.448,0.025399,471.448,0.0342471,471.448,0.0308253,471.448,0.0324858,
470.075,0.0273701,470.075,0.0272164,470.075,0.0265146,470.075,0.0349561,470.075,0.0317776,470.075,0.0336078,
468.548,0.028476,468.548,0.0284357,468.548,0.0275206,468.548,0.0359874,468.548,0.0329667,468.548,0.0345213,
467.021,0.0300831,467.021,0.0297102,467.021,0.0289672,467.021,0.0374231,467.021,0.0344397,467.021,0.0362232,
465.494,0.031194,465.494,0.0311345,465.494,0.0302983,465.494,0.0387313,465.494,0.035662,465.494,0.0374794,
463.966,0.0326002,463.966,0.0322232,463.966,0.0314732,463.966,0.0400966,463.966,0.036958,463.966,0.0387546,
462.438,0.0335133,462.438,0.0335617,462.438,0.0326182,462.438,0.0413325,462.438,0.0380786,462.438,0.0400858,
461.062,0.0343925,461.062,0.0341003,461.062,0.0334369,461.062,0.0423549,461.062,0.0389177,461.062,0.0407029,
459.533,0.036076,459.533,0.0355806,459.533,0.0350199,459.533,0.0440758,459.533,0.0405767,459.533,0.0420651,
458.004,0.0366784,458.004,0.0363963,458.004,0.0355901,458.004,0.0449961,458.004,0.0412183,458.004,0.0428594,
456.474,0.0374195,456.474,0.0371847,456.474,0.036284,456.474,0.0458181,456.474,0.0418645,456.474,0.0434395,
454.944,0.0380996,454.944,0.037675,454.944,0.0370141,454.944,0.0464169,454.944,0.0425155,454.944,0.0442615,
453.566,0.0385194,453.566,0.0382013,453.566,0.0374806,453.566,0.046873,453.566,0.0430318,453.566,0.04482,
452.035,0.0392587,452.035,0.038836,452.035,0.038236,452.035,0.0475557,452.035,0.043753,452.035,0.045443,
450.503,0.039282,450.503,0.0394215,450.503,0.0384801,450.503,0.0477741,450.503,0.0439183,450.503,0.0456821,
448.971,0.0399253,448.971,0.0396315,448.971,0.0386535,448.971,0.048039,448.971,0.0442124,448.971,0.0462437,
447.439,0.0401483,447.439,0.0398913,447.439,0.0391679,447.439,0.048438,447.439,0.0447918,447.439,0.0461626,
446.059,0.0405192,446.059,0.0401221,446.059,0.0393845,446.059,0.0490493,446.059,0.0449307,446.059,0.0466111,
444.526,0.0407765,444.526,0.0403186,444.526,0.0394405,444.526,0.0492797,444.526,0.0453425,444.526,0.0471885,
442.992,0.0407231,442.992,0.0405454,442.992,0.0396299,442.992,0.0495134,442.992,0.0453082,442.992,0.0470393,
441.458,0.0407296,441.458,0.0403694,441.458,0.0397458,441.458,0.0495404,441.458,0.0453138,441.458,0.0470809,
439.923,0.0407663,439.923,0.0406966,439.923,0.0399516,439.923,0.0500595,439.923,0.0454636,439.923,0.0475904,
438.542,0.041053,438.542,0.0407044,438.542,0.0399842,438.542,0.0499769,438.542,0.0456302,438.542,0.0473355,
437.007,0.0405056,437.007,0.0404766,437.007,0.0395735,437.007,0.0497889,437.007,0.0455196,437.007,0.0472373,
435.471,0.04027,435.471,0.0401687,435.471,0.0391823,435.471,0.0494798,435.471,0.0450867,435.471,0.0470119,
433.935,0.0402728,433.935,0.0400572,433.935,0.0391241,433.935,0.0492262,433.935,0.0450436,433.935,0.0466656,
432.552,0.0400356,432.552,0.0397976,432.552,0.0392742,432.552,0.0490198,432.552,0.0449299,432.552,0.0464748,
431.015,0.0401095,431.015,0.0396667,431.015,0.038931,431.015,0.0487652,431.015,0.0449423,431.015,0.0462847,
429.477,0.0396458,429.477,0.0396488,429.477,0.0388259,429.477,0.0487211,429.477,0.0447943,429.477,0.0463167,
427.939,0.0395046,427.939,0.0394415,427.939,0.0385908,427.939,0.0484369,427.939,0.044821,427.939,0.0460316,
426.555,0.03938,426.555,0.0392063,426.555,0.0384279,426.555,0.0481091,426.555,0.0446274,426.555,0.0457423,
425.016,0.0392805,425.016,0.0392373,425.016,0.0381373,425.016,0.0480455,425.016,0.0446337,425.016,0.0453882,
423.477,0.0393091,423.477,0.0390526,423.477,0.0384027,423.477,0.0479753,423.477,0.0446341,423.477,0.0454699,
421.938,0.0392232,421.938,0.0392149,421.938,0.0381935,421.938,0.0480112,421.938,0.0446212,421.938,0.0456662,
420.552,0.0389946,420.552,0.0389943,420.552,0.0380731,420.552,0.0477942,420.552,0.0444059,420.552,0.0455572,
419.012,0.0386905,419.012,0.0385835,419.012,0.0379627,419.012,0.047591,419.012,0.0443957,419.012,0.0453811,
417.471,0.0385033,417.471,0.0384319,417.471,0.0377126,417.471,0.0473951,417.471,0.0441283,417.471,0.0450815,
415.93,0.0384429,415.93,0.0381036,415.93,0.0375237,415.93,0.0470411,415.93,0.0440022,415.93,0.0452333,
414.543,0.0379832,414.543,0.0378681,414.543,0.0370515,414.543,0.0467343,414.543,0.0437362,414.543,0.0446674,
413.001,0.0379171,413.001,0.0374902,413.001,0.03668008,413.001,0.0464452,413.001,0.0434584,413.001,0.0446808,
411.459,0.0372258,411.459,0.0372042,411.459,0.0364592,411.459,0.0460016,411.459,0.0430208,411.459,0.0441662,
410.071,0.036995,410.071,0.0369633,410.071,0.0360469,410.071,0.0460241,410.071,0.0428461,410.071,0.0438952,
408.528,0.0367459,408.528,0.0363836,408.528,0.0355833,408.528,0.0456266,408.528,0.042394,408.528,0.0436073,
406.985,0.0364038,406.985,0.0359791,406.985,0.035257,406.985,0.0451912,406.985,0.042006,406.985,0.0432972,
405.441,0.0357273,405.441,0.0355173,405.441,0.0348933,405.441,0.0445929,405.441,0.0414506,405.441,0.0429547,
404.051,0.0354436,404.051,0.0352297,404.051,0.0343922,404.051,0.0442766,404.051,0.0410805,404.051,0.0423508,
402.507,0.0351031,402.507,0.0345678,402.507,0.0340295,402.507,0.0438408,402.507,0.0405119,402.507,0.0420226,
400.962,0.0345973,400.962,0.0339522,400.962,0.0335439,400.962,0.0433391,400.962,0.0400573,400.962,0.0412472,
399.571,0.0342461,399.571,0.0338252,399.571,0.0330912,399.571,0.0431899,399.571,0.0399285,399.571,0.0413076,
398.026,0.0335533,398.026,0.0334297,398.026,0.0324381,398.026,0.0426034,398.026,0.0393823,398.026,0.0409177,
396.48,0.0334687,396.48,0.0331745,396.48,0.0324456,396.48,0.042497,396.48,0.0393046,396.48,0.0408056,
394.933,0.0333437,394.933,0.0326999,394.933,0.0321308,394.933,0.042191,394.933,0.0388664,394.933,0.0405982,
393.541,0.0335278,393.541,0.0327848,393.541,0.0321874,393.541,0.042301,393.541,0.0393614,393.541,0.0409,
391.994,0.0328547,391.994,0.0327424,391.994,0.0318865,391.994,0.042184,391.994,0.0387886,391.994,0.0410939,
390.447,0.0329791,390.447,0.0325359,390.447,0.0317562,390.447,0.0424507,390.447,0.0391759,390.447,0.0408856,
389.054,0.0329728,389.054,0.0327799,389.054,0.0313735,389.054,0.0420431,389.054,0.0388581,389.054,0.0406915,
387.506,0.0332834,387.506,0.0328621,387.506,0.0320717,387.506,0.0426289,387.506,0.0393595,387.506,0.041821,
385.957,0.0331274,385.957,0.0331717,385.957,0.0317001,385.957,0.0427857,385.957,0.039494,385.957,0.0415852,
384.563,0.033556,384.563,0.0333113,384.563,0.0326126,384.563,0.0431777,384.563,0.0398801,384.563,0.0420139,
383.014,0.0340104,383.014,0.0339993,383.014,0.0334803,383.014,0.0438498,383.014,0.0405172,383.014,0.0428121,
381.464,0.0346461,381.464,0.0341913,381.464,0.0331532,381.464,0.0441713,381.464,0.0408698,381.464,0.0430626,
380.069,0.035393,380.069,0.0348511,380.069,0.033997,380.069,0.0447955,380.069,0.0416495,380.069,0.0439347,
378.519,0.0361792,378.519,0.0354639,378.519,0.0344131,378.519,0.0452449,378.519,0.042358,378.519,0.0448456,
376.968,0.037342,376.968,0.0370732,376.968,0.0358417,376.968,0.0468099,376.968,0.0436327,376.968,0.0461159,
375.573,0.0382652,375.573,0.0376415,375.573,0.0365855,375.573,0.0475811,375.573,0.0443713,375.573,0.0466449,
374.021,0.0391243,374.021,0.0386965,374.021,0.037686,374.021,0.0486801,374.021,0.0455863,374.021,0.0479257,
372.47,0.0399865,372.47,0.039892,372.47,0.03867,372.47,0.0497183,372.47,0.0465851,372.47,0.0488588,
371.073,0.0410749,371.073,0.0406695,371.073,0.0397964,371.073,0.0513606,371.073,0.0478746,371.073,0.0500412,
369.52,0.042325,369.52,0.041633,369.52,0.0412431,369.52,0.0527325,369.52,0.0492308,369.52,0.0512828,
367.968,0.0434163,367.968,0.0428638,367.968,0.0421271,367.968,0.0538315,367.968,0.0501063,367.968,0.0521678,
366.57,0.0442679,366.57,0.0438351,366.57,0.0431168,366.57,0.0548907,366.57,0.051371,366.57,0.0536549,
365.016,0.0455902,365.016,0.0447435,365.016,0.044114,365.016,0.0558001,365.016,0.0524965,365.016,0.0544132,
363.463,0.0461438,363.463,0.0456243,363.463,0.0448418,363.463,0.0564168,363.463,0.0531165,363.463,0.0553671,
362.064,0.046953,362.064,0.0458991,362.064,0.0454501,362.064,0.0570922,362.064,0.053995,362.064,0.0564353,
360.51,0.047856,360.51,0.0470326,360.51,0.0462716,360.51,0.0579609,360.51,0.0548235,360.51,0.0572787,
358.955,0.0480961,358.955,0.0469833,358.955,0.0463943,358.955,0.0581117,358.955,0.0550709,358.955,0.0576169,
357.555,0.0486671,357.555,0.0477286,357.555,0.0471878,357.555,0.0587438,357.555,0.0557157,357.555,0.0583846,
356,0.0490356,356,0.0479627,356,0.0476226,356,0.0591397,356,0.0562181,356,0.0590706,
354.444,0.0494585,354.444,0.0483215,354.444,0.0477866,354.444,0.0595956,354.444,0.056635,354.444,0.0596077,
353.044,0.0500088,353.044,0.0486338,353.044,0.0478953,353.044,0.0600713,353.044,0.0569625,353.044,0.060025,
351.487,0.0499519,351.487,0.0485824,351.487,0.0479035,351.487,0.0601831,351.487,0.0571166,351.487,0.0600798,
349.93,0.0500302,349.93,0.0488795,349.93,0.0481804,349.93,0.0606544,349.93,0.0574907,349.93,0.0607072,
348.529,0.0500648,348.529,0.0488359,348.529,0.0483792,348.529,0.0605915,348.529,0.0573977,348.529,0.0609397,
346.972,0.0499835,346.972,0.0489293,346.972,0.0481641,346.972,0.0605293,346.972,0.0574353,346.972,0.0611478,
345.57,0.0503824,345.57,0.0489574,345.57,0.0484254,345.57,0.0606534,345.57,0.0578062,345.57,0.0614469,
344.012,0.0503166,344.012,0.0492035,344.012,0.0486096,344.012,0.0612072,344.012,0.0583294,344.012,0.062145,
342.453,0.050219,342.453,0.049028,342.453,0.0484082,342.453,0.061081,342.453,0.058345,342.453,0.0626415,
341.05,0.0501376,341.05,0.0492974,341.05,0.0485631,341.05,0.0614339,341.05,0.0587197,341.05,0.0632333,
339.491,0.050005,339.491,0.0491898,339.491,0.048261,339.491,0.0614932,339.491,0.0590507,339.491,0.0640242,
337.932,0.0499405,337.932,0.0490709,337.932,0.0484212,337.932,0.0617376,337.932,0.0594195,337.932,0.0652263,
336.529,0.0500068,336.529,0.0488784,336.529,0.0484611,336.529,0.0623592,336.529,0.0600469,336.529,0.0666347,
334.969,0.0499053,334.969,0.0490141,334.969,0.0487853,334.969,0.062947,334.969,0.0617372,334.969,0.0701864,
333.564,0.0501148,333.564,0.0492926,333.564,0.0495497,333.564,0.0644458,333.564,0.06453,333.564,0.0747523,
332.004,0.050488,332.004,0.0502249,332.004,0.0508567,332.004,0.0669089,332.004,0.0694279,332.004,0.0844214,
330.443,0.0511184,330.443,0.0514312,330.443,0.0534271,330.443,0.0718747,330.443,0.0785133,330.443,0.101237,
329.038,0.0522662,329.038,0.0537493,329.038,0.0576687,329.038,0.0794761,329.038,0.0929529,329.038,0.12736,
327.476,0.0545051,327.476,0.0579693,327.476,0.0658403,327.476,0.0936566,327.476,0.121458,327.476,0.17875,
326.071,0.0590823,326.071,0.0659291,326.071,0.080264,326.071,0.119675,326.071,0.169129,326.071,0.264938,
324.509,0.0674086,324.509,0.0808971,324.509,0.1083,324.509,0.170226,324.509,0.264301,324.509,0.434358,
322.946,0.0803459,322.946,0.104085,322.946,0.151187,322.946,0.244894,322.946,0.403199,322.946,0.677407,
321.54,0.0970925,321.54,0.13511,321.54,0.209271,321.54,0.348658,321.54,0.598739,321.54,1.01609,
319.977,0.123447,319.977,0.185183,319.977,0.303352,319.977,0.514068,319.977,0.906655,319.977,1.57881,
318.57,0.151836,318.57,0.235464,318.57,0.396723,318.57,0.689862,318.57,1.24578,318.57,2.14076,
317.007,0.179269,317.007,0.28855,317.007,0.496466,317.007,0.867065,317.007,1.60704,317.007,2.62036,
315.443,0.199234,315.443,0.326209,315.443,0.569762,315.443,1.01419,315.443,1.88678,315.443,2.9234,
314.035,0.212053,314.035,0.350768,314.035,0.618437,314.035,1.10763,314.035,2.07435,314.035,3.1329,
312.471,0.225274,312.471,0.374575,312.471,0.661991,312.471,1.19212,312.471,2.21767,312.471,3.1548,
311.062,0.236273,311.062,0.393909,311.062,0.698918,311.062,1.265,311.062,2.37186,311.062,3.2489,
309.497,0.24617,309.497,0.411279,309.497,0.730408,309.497,1.32721,309.497,2.48045,309.497,3.2926,
307.932,0.254051,307.932,0.422719,307.932,0.751131,307.932,1.35942,307.932,2.39579,307.932,2.82428,
306.523,0.259422,306.523,0.431147,306.523,0.765087,306.523,1.37819,306.523,2.31549,306.523,2.54342,
304.957,0.266926,304.957,0.442126,304.957,0.785489,304.957,1.42092,304.957,2.39554,304.957,2.7208,
303.548,0.273089,303.548,0.449874,303.548,0.80181,303.548,1.463,303.548,2.64366,303.548,3.16297,
301.981,0.275773,301.981,0.451703,301.981,0.805492,301.981,1.4735,301.981,2.70377,301.981,3.2395,
300.571,0.277113,300.571,0.450738,300.571,0.804413,300.571,1.47219,300.571,2.75007,300.571,3.44745,
299.004,0.279997,299.004,0.452075,299.004,0.80741,299.004,1.47936,299.004,2.74612,299.004,3.52729,
297.437,0.283711,297.437,0.454724,297.437,0.81239,297.437,1.48633,297.437,2.71393,297.437,3.33742,
296.026,0.283619,296.026,0.451008,296.026,0.80601,296.026,1.47563,296.026,2.72982,296.026,3.36528,
294.458,0.279924,294.458,0.438115,294.458,0.781734,294.458,1.43216,294.458,2.66453,294.458,3.39322,
293.047,0.274402,293.047,0.423636,293.047,0.753244,293.047,1.3807,293.047,2.59533,293.047,3.37809,
291.479,0.269654,291.479,0.410543,291.479,0.729455,291.479,1.33258,291.479,2.5113,291.479,3.65516,
290.067,0.267424,290.067,0.401728,290.067,0.712293,290.067,1.30101,290.067,2.43686,290.067,3.47041,
288.498,0.263408,288.498,0.389529,288.498,0.688465,288.498,1.25774,288.498,2.38283,288.498,3.31214,
286.929,0.260646,286.929,0.380554,286.929,0.672188,286.929,1.22557,286.929,2.31168,286.929,3.38623,
285.517,0.259882,285.517,0.375387,285.517,0.662105,285.517,1.20567,285.517,2.28498,285.517,3.43612,
283.947,0.259793,283.947,0.371614,283.947,0.655218,283.947,1.19367,283.947,2.25033,283.947,3.32162,
282.534,0.259883,282.534,0.37,282.534,0.652245,282.534,1.18806,282.534,2.24997,282.534,3.46007,
280.964,0.261744,280.964,0.370694,280.964,0.653368,280.964,1.19094,280.964,2.24716,280.964,3.35039,
279.551,0.263495,279.551,0.372389,279.551,0.657227,279.551,1.19883,279.551,2.25528,279.551,3.29842,
277.98,0.264519,277.98,0.373559,277.98,0.65994,277.98,1.20571,277.98,2.28173,277.98,3.37696,
276.566,0.264574,276.566,0.373385,276.566,0.660244,276.566,1.20806,276.566,2.29324,276.566,3.33415,
274.995,0.264072,274.995,0.37237,274.995,0.65829,274.995,1.2065,274.995,2.28623,274.995,3.33337,
273.423,0.261909,273.423,0.368727,273.423,0.652464,273.423,1.19855,273.423,2.26517,273.423,3.4832,
272.009,0.259554,272.009,0.364876,272.009,0.644634,272.009,1.18459,272.009,2.23321,272.009,3.26143,
270.437,0.255077,270.437,0.358635,270.437,0.633379,270.437,1.16543,270.437,2.20826,270.437,3.33865,
269.022,0.250629,269.022,0.35158,269.022,0.62002,269.022,1.1433,269.022,2.17445,269.022,3.27618,
267.449,0.245628,267.449,0.344226,267.449,0.606534,267.449,1.11959,267.449,2.12291,267.449,3.51531,
266.034,0.240677,266.034,0.336599,266.034,0.593123,266.034,1.09439,266.034,2.08005,266.034,3.29346,
264.461,0.233873,264.461,0.328624,264.461,0.579504,264.461,1.07154,264.461,2.04163,264.461,3.33226,
263.045,0.230819,263.045,0.326771,263.045,0.577782,263.045,1.06871,263.045,2.03721,263.045,3.3068,
261.472,0.231417,261.472,0.332032,261.472,0.589076,261.472,1.08933,261.472,2.07078,261.472,3.26687,
260.055,0.235325,260.055,0.341735,260.055,0.608104,260.055,1.12439,260.055,2.13753,260.055,3.36272,
258.481,0.243474,258.481,0.361253,258.481,0.647626,258.481,1.1954,258.481,2.26134,258.481,3.41385,
257.065,0.251265,257.065,0.37973,257.065,0.684024,257.065,1.26163,257.065,2.41266,257.065,3.40881,
255.49,0.261043,255.49,0.401423,255.49,0.724333,255.49,1.33348,255.49,2.49347,255.49,3.30437,
254.073,0.266192,254.073,0.412959,254.073,0.746855,254.073,1.37654,254.073,2.59407,254.073,3.48714,
252.498,0.267479,252.498,0.417144,252.498,0.75494,252.498,1.39156,252.498,2.62149,252.498,3.45798,
250.923,0.267335,250.923,0.416012,250.923,0.752134,250.923,1.38519,250.923,2.60413,250.923,3.49186,
249.508,0.26559,249.508,0.410609,249.508,0.740373,249.508,1.36313,249.508,2.5321,249.508,3.3004,
247.942,0.263783,247.942,0.403974,247.942,0.726371,247.942,1.33671,247.942,2.51599,247.942,3.61688,
246.533,0.264248,246.533,0.400798,246.533,0.717686,246.533,1.31956,246.533,2.46415,246.533,3.32786,
244.966,0.268021,244.966,0.4015,244.966,0.715426,244.966,1.31359,244.966,2.46768,244.966,3.50246,
243.556,0.277834,243.556,0.413778,243.556,0.734836,243.556,1.34486,243.556,2.50781,243.556,3.40635,
241.989,0.301717,241.989,0.447407,241.989,0.794964,241.989,1.44941,241.989,2.64977,241.989,3.39676,
240.578,0.345691,240.578,0.523462,240.578,0.925386,240.578,1.66771,240.578,2.84815,240.578,3.11495,
239.011,0.418789,239.011,0.643843,239.011,1.14111,239.011,2.02936,239.011,3.09024,239.011,3.19231,
237.443,0.498664,237.443,0.783894,237.443,1.40253,237.443,2.43345,237.443,3.14295,237.443,3.12782,
236.032,0.565906,236.032,0.906439,236.032,1.62517,236.032,2.69174,236.032,3.06652,236.032,3.11489,
234.464,0.632242,234.464,1.02258,234.464,1.84251,234.464,2.99959,234.464,3.33345,234.464,3.39986,
233.052,0.667233,233.052,1.08212,233.052,1.9417,233.052,3.1406,233.052,3.30282,233.052,3.41345,
231.484,0.688339,231.484,1.11273,231.484,2.00331,231.484,3.21632,231.484,3.63698,231.484,3.62547,
230.072,0.705945,230.072,1.13588,230.072,2.03944,230.072,3.21461,230.072,3.46453,230.072,3.76296,
228.503,0.718476,228.503,1.14986,228.503,2.06225,228.503,3.24672,228.503,3.29249,228.503,3.40889,
226.934,0.716236,226.934,1.13664,226.934,2.03021,226.934,3.20627,226.934,3.2608,226.934,3.40215,
225.521,0.701191,225.521,1.09888,225.521,1.95819,225.521,3.22321,225.521,3.41489,225.521,3.49766,
223.952,0.690609,223.952,1.07127,223.952,1.90613,223.952,3.15594,223.952,3.35425,223.952,3.41663,
222.539,0.695929,222.539,1.07701,222.539,1.91262,222.539,3.14351,222.539,3.26292,222.539,3.24188,
220.969,0.723009,220.969,1.12662,220.969,1.99335,220.969,3.07264,220.969,3.23884,220.969,3.28751,
219.555,0.764155,219.555,1.21246,219.555,2.14445,219.555,3.24719,219.555,3.37782,219.555,3.45125,
217.985,0.810711,217.985,1.29645,217.985,2.30142,217.985,3.30195,217.985,3.35328,217.985,3.45662,
216.572,0.832577,216.572,1.33984,216.572,2.35268,216.572,3.26069,216.572,3.3507,216.572,3.36427,
215.001,0.850053,215.001,1.37038,215.001,2.41596,215.001,3.2525,215.001,3.33029,215.001,3.48988,
213.43,0.865214,213.43,1.39946,213.43,2.43985,213.43,3.30222,213.43,3.23024,213.43,3.39957,
212.016,0.880648,212.016,1.42463,212.016,2.49408,212.016,3.24378,212.016,3.26387,212.016,3.381,
210.444,0.90152,210.444,1.45081,210.444,2.52162,210.444,3.23218,210.444,3.28233,210.444,3.37704,
209.03,0.914634,209.03,1.46115,209.03,2.53338,209.03,3.21818,209.03,3.23637,209.03,3.3066,
207.458,0.926475,207.458,1.45885,207.458,2.51495,207.458,3.27293,207.458,3.22966,207.458,3.39907,
206.043,0.933898,206.043,1.43772,206.043,2.47185,206.043,3.23465,206.043,3.31623,206.043,3.31708,
204.471,0.944113,204.471,1.39905,204.471,2.40292,204.471,3.31299,204.471,3.28122,204.471,3.36859,
203.056,0.960831,203.056,1.35227,203.056,2.29549,203.056,3.17716,203.056,3.27395,203.056,3.28861,
201.483,0.994137,201.483,1.30546,201.483,2.15984,201.483,3.08927,201.483,3.08223,201.483,3.24782,
200.068,1.03802,200.068,1.26541,200.068,2.05692,200.068,3.09361,200.068,3.1874,200.068,3.14882,

is_2_5_7uM,
is_2_5_7uM
Collection Time: 4/26/2024 1:58:11 PM
Operator Name  :
Scan Software Version: 3.00(339)
Parameter List :
Instrument                        Cary 50
Instrument Version                3.00
Start (nm)                        800.0
Stop (nm)                         200.0
X Mode                            Nanometers
Y Mode                            Abs
UV-Vis Scan Rate (nm/min)         300.00
UV-Vis Data Interval (nm)         0.50
UV-Vis Ave. Time (sec)            0.1000
Beam Mode                         Dual Beam
Baseline Correction               Off
Cycle Mode                        Off
Comments
Method Log     :
Method Name    :
Date/Time stamp: 4/20/2024 5:05:46 PM
Method Modifications:
UVVIS SAT Changed: 4/26/2024 1:57:00 PM, Old:0.0125, New:0.1000
Common SAT Changed: 4/26/2024 1:57:00 PM, Old:0.0125, New:0.1000
Common Interval nm Changed: 4/26/2024 1:57:01 PM, Old:     5.00, New:     0.50
End Method Modifications
<Current Wavelength> , 200.5

is_2_5_15uM1,
is_2_5_15uM1
Collection Time: 4/26/2024 2:02:44 PM
Operator Name  :
Scan Software Version: 3.00(339)
Parameter List :
Instrument                        Cary 50
Instrument Version                3.00
Start (nm)                        800.0
Stop (nm)                         200.0
X Mode                            Nanometers
Y Mode                            Abs
UV-Vis Scan Rate (nm/min)         300.00
UV-Vis Data Interval (nm)         0.50
UV-Vis Ave. Time (sec)            0.1000
Beam Mode                         Dual Beam
Baseline Correction               Off
Cycle Mode                        Off
Comments
Method Log     :
Method Name    :
Date/Time stamp: 4/20/2024 5:05:46 PM
Method Modifications:
UVVIS SAT Changed: 4/26/2024 1:57:00 PM, Old:0.0125, New:0.1000
Common SAT Changed: 4/26/2024 1:57:00 PM, Old:0.0125, New:0.1000
Common Interval nm Changed: 4/26/2024 1:57:01 PM, Old:     5.00, New:     0.50
End Method Modifications
<Current Wavelength> , 200.5

is_2_5_31uM,
is_2_5_31uM
Collection Time: 4/26/2024 2:06:42 PM
Operator Name  :
Scan Software Version: 3.00(339)
Parameter List :
Instrument                        Cary 50
Instrument Version                3.00
Start (nm)                        800.0
Stop (nm)                         200.0
X Mode                            Nanometers
Y Mode                            Abs
UV-Vis Scan Rate (nm/min)         300.00
UV-Vis Data Interval (nm)         0.50
UV-Vis Ave. Time (sec)            0.1000
Beam Mode                         Dual Beam
Baseline Correction               Off
Cycle Mode                        Off
Comments
Method Log     :
Method Name    :
Date/Time stamp: 4/20/2024 5:05:46 PM
Method Modifications:
UVVIS SAT Changed: 4/26/2024 1:57:00 PM, Old:0.0125, New:0.1000
Common SAT Changed: 4/26/2024 1:57:00 PM, Old:0.0125, New:0.1000
Common Interval nm Changed: 4/26/2024 1:57:01 PM, Old:     5.00, New:     0.50
End Method Modifications
<Current Wavelength> , 200.5

is_2_5_62uM,
is_2_5_62uM
Collection Time: 4/26/2024 2:10:49 PM
Operator Name  :
Scan Software Version: 3.00(339)
Parameter List :
Instrument                        Cary 50
Instrument Version                3.00
Start (nm)                        800.0
Stop (nm)                         200.0
X Mode                            Nanometers
Y Mode                            Abs
UV-Vis Scan Rate (nm/min)         300.00
UV-Vis Data Interval (nm)         0.50
UV-Vis Ave. Time (sec)            0.1000
Beam Mode                         Dual Beam
Baseline Correction               Off
Cycle Mode                        Off
Comments
Method Log     :
Method Name    :
Date/Time stamp: 4/20/2024 5:05:46 PM
Method Modifications:
UVVIS SAT Changed: 4/26/2024 1:57:00 PM, Old:0.0125, New:0.1000
Common SAT Changed: 4/26/2024 1:57:00 PM, Old:0.0125, New:0.1000
Common Interval nm Changed: 4/26/2024 1:57:01 PM, Old:     5.00, New:     0.50
End Method Modifications
<Current Wavelength> , 200.5

is_2_5_125uM,
is_2_5_125uM
Collection Time: 4/26/2024 2:14:42 PM
Operator Name  :
Scan Software Version: 3.00(339)
Parameter List :
Instrument                        Cary 50
Instrument Version                3.00
Start (nm)                        800.0
Stop (nm)                         200.0
X Mode                            Nanometers
Y Mode                            Abs
UV-Vis Scan Rate (nm/min)         300.00
UV-Vis Data Interval (nm)         0.50
UV-Vis Ave. Time (sec)            0.1000
Beam Mode                         Dual Beam
Baseline Correction               Off
Cycle Mode                        Off
Comments
Method Log     :
Method Name    :
Date/Time stamp: 4/20/2024 5:05:46 PM
Method Modifications:
UVVIS SAT Changed: 4/26/2024 1:57:00 PM, Old:0.0125, New:0.1000
Common SAT Changed: 4/26/2024 1:57:00 PM, Old:0.0125, New:0.1000
Common Interval nm Changed: 4/26/2024 1:57:01 PM, Old:     5.00, New:     0.50
End Method Modifications
<Current Wavelength> , 200.5

is_2_5_250uM1,
is_2_5_250uM1
Collection Time: 4/26/2024 2:17:28 PM
Operator Name  :
Scan Software Version: 3.00(339)
Parameter List :
Instrument                        Cary 50
Instrument Version                3.00
Start (nm)                        800.0
Stop (nm)                         200.0
X Mode                            Nanometers
Y Mode                            Abs
UV-Vis Scan Rate (nm/min)         300.00
UV-Vis Data Interval (nm)         0.50
UV-Vis Ave. Time (sec)            0.1000
Beam Mode                         Dual Beam
Baseline Correction               Off
Cycle Mode                        Off
Comments
Method Log     :
Method Name    :
Date/Time stamp: 4/20/2024 5:05:46 PM
Method Modifications:
UVVIS SAT Changed: 4/26/2024 1:57:00 PM, Old:0.0125, New:0.1000
Common SAT Changed: 4/26/2024 1:57:00 PM, Old:0.0125, New:0.1000
Common Interval nm Changed: 4/26/2024 1:57:01 PM, Old:     5.00, New:     0.50
End Method Modifications
<Current Wavelength> , 200.5