File: silicates_UV_vis/Allylsilicates_plot/is_2_9_allyl_methylcatechol.csv
is_2_9_7uM,,is_2_9_15uM1,,is_2_9_31uM2,,is_2_9_15uM,,is_2_9_31uM,,is_2_9_62uM,,is_2_9_125uM,,is_2_9_250uM,,
Wavelength (nm),Abs,Wavelength (nm),Abs,Wavelength (nm),Abs,Wavelength (nm),Abs,Wavelength (nm),Abs,Wavelength (nm),Abs,Wavelength (nm),Abs,Wavelength (nm),Abs,
799.953,-0.000807667,799.953,-0.000320454,799.953,0.000159331,799.953,0.00199578,799.953,0.00539419,799.953,0.00140072,799.953,0.00165569,799.953,0.00185987,
798.01,-0.000150216,798.01,-4.49357e-05,798.01,0.000369472,798.01,0.002026,798.01,0.00594998,798.01,0.00212697,798.01,0.00189593,798.01,0.00288641,
796.065,-0.000284031,796.065,-0.000482712,796.065,0.000473894,796.065,0.00217065,796.065,0.00465749,796.065,0.00213363,796.065,0.000881327,796.065,0.00247673,
793.979,-0.000509965,793.979,0.000196364,793.979,0.000132841,793.979,0.00133167,793.979,0.00341723,793.979,0.00189598,793.979,0.0013229,793.979,0.00290668,
792.031,-0.000649252,792.031,-0.000294327,792.031,-0.00063302,792.031,0.000884829,792.031,0.00255176,792.031,0.000996587,792.031,0.000943403,792.031,0.00162154,
789.942,-0.000843839,789.942,-0.00110274,789.942,-0.00081206,789.942,0.000737963,789.942,0.00194767,789.942,0.000946438,789.942,0.000553328,789.942,0.00146412,
787.991,-0.000953627,787.991,-0.00110935,787.991,-0.0014923,787.991,0.000414036,787.991,0.00122871,787.991,0.000308852,787.991,0.000238035,787.991,0.0012946,
786.038,-0.00187212,786.038,-0.00144766,786.038,-0.00115758,786.038,0.000244018,786.038,0.000513234,786.038,0.000472106,786.038,6.29851e-05,786.038,0.000703788,
783.945,-0.00215225,783.945,-0.00221098,783.945,-0.00262363,783.945,-0.000726529,783.945,-0.000109587,783.945,-0.000480437,783.945,-0.000881196,783.945,0.000522123,
781.989,-0.00203246,781.989,-0.00173235,781.989,-0.00173513,781.989,-0.000213869,781.989,0.000485245,781.989,-0.000344975,781.989,-0.00017366,781.989,0.000961381,
780.032,-0.00243169,780.032,-0.0021386,780.032,-0.00195464,780.032,-0.000610118,780.032,0.000343099,780.032,-0.000523823,780.032,-0.000384133,780.032,0.000585884,
777.933,-0.00318043,777.933,-0.00215756,777.933,-0.00215643,777.933,-0.000576719,777.933,-0.000251953,777.933,-2.82666e-05,777.933,-0.000822188,777.933,5.62797e-05,
775.973,-0.00299789,775.973,-0.0023715,775.973,-0.00206565,775.973,-0.000536026,775.973,-0.00036039,775.973,-0.000448062,775.973,-0.000791079,775.973,0.00026865,
774.011,-0.00234411,774.011,-0.00241367,774.011,-0.00217023,774.011,-0.00082875,774.011,-0.000601536,774.011,-0.000627643,774.011,-0.00090708,774.011,-0.000319005,
772.048,-0.00327961,772.048,-0.00285951,772.048,-0.0029025,772.048,-0.00102047,772.048,-0.00100916,772.048,-0.000563896,772.048,-0.00127162,772.048,-7.1957e-05,
769.943,-0.00283034,769.943,-0.00276481,769.943,-0.00289412,769.943,-0.000760433,769.943,-0.000794852,769.943,-0.00095466,769.943,-0.0015151,769.943,-0.000457061,
767.977,-0.00370254,767.977,-0.00332739,767.977,-0.00334116,767.977,-0.00150189,767.977,-0.00152392,767.977,-0.00121773,767.977,-0.00200788,767.977,-0.000665277,
766.009,-0.00363698,766.009,-0.00343224,766.009,-0.00336618,766.009,-0.00139487,766.009,-0.00109045,766.009,-0.00161028,766.009,-0.00202051,766.009,-0.000782811,
764.04,-0.00400324,764.04,-0.00373724,764.04,-0.00376454,764.04,-0.00162786,764.04,-0.00174751,764.04,-0.00171105,764.04,-0.00197124,764.04,-0.00121329,
762.07,-0.00430768,762.07,-0.00380468,762.07,-0.00395122,762.07,-0.00164829,762.07,-0.00176984,762.07,-0.00236702,762.07,-0.0024461,762.07,-0.00138012,
759.957,-0.00462195,759.957,-0.00483438,759.957,-0.00389104,759.957,-0.00252641,759.957,-0.00229663,759.957,-0.00185382,759.957,-0.00277304,759.957,-0.00173137,
757.983,-0.00516965,757.983,-0.00503529,757.983,-0.00462774,757.983,-0.00311356,757.983,-0.00256341,757.983,-0.00271974,757.983,-0.00315956,757.983,-0.00226151,
756.008,-0.0051916,756.008,-0.00480478,756.008,-0.00512601,756.008,-0.00259095,756.008,-0.0030238,756.008,-0.00275627,756.008,-0.00309788,756.008,-0.00225007,
754.032,-0.005742,754.032,-0.00526623,754.032,-0.00543299,754.032,-0.00334851,754.032,-0.00375089,754.032,-0.00348221,754.032,-0.00404156,754.032,-0.00258189,
752.054,-0.00625441,752.054,-0.00576402,752.054,-0.00589132,752.054,-0.00389668,752.054,-0.00345535,752.054,-0.00344893,752.054,-0.00425534,752.054,-0.00310282,
749.933,-0.00664182,749.933,-0.00602123,749.933,-0.00583125,749.933,-0.00419279,749.933,-0.00401504,749.933,-0.00432086,749.933,-0.00468874,749.933,-0.00360212,
747.953,-0.00708609,747.953,-0.00652127,747.953,-0.00679898,747.953,-0.00492596,747.953,-0.00461032,747.953,-0.00466529,747.953,-0.00507254,747.953,-0.00340563,
745.971,-0.00751673,745.971,-0.0068261,745.971,-0.00718479,745.971,-0.00512867,745.971,-0.00447092,745.971,-0.00479331,745.971,-0.00507065,745.971,-0.00446359,
743.987,-0.00866244,743.987,-0.00810795,743.987,-0.0077993,743.987,-0.0062762,743.987,-0.00623399,743.987,-0.00595378,743.987,-0.00678644,743.987,-0.00544659,
742.002,-0.00825503,742.002,-0.00799752,742.002,-0.00749729,742.002,-0.00600183,742.002,-0.00563603,742.002,-0.00585408,742.002,-0.00647721,742.002,-0.00514949,
740.016,-0.00937554,740.016,-0.0090542,740.016,-0.00907783,740.016,-0.00701529,740.016,-0.00706378,740.016,-0.00687145,740.016,-0.00718392,740.016,-0.0060753,
738.028,-0.00917136,738.028,-0.00879974,738.028,-0.00894781,738.028,-0.00701187,738.028,-0.00648532,738.028,-0.00654478,738.028,-0.00707947,738.028,-0.00566413,
736.039,-0.00937787,736.039,-0.00930476,736.039,-0.00913187,736.039,-0.00698467,736.039,-0.00694004,736.039,-0.00677809,736.039,-0.00731315,736.039,-0.00620817,
734.048,-0.00948213,734.048,-0.00914029,734.048,-0.0092074,734.048,-0.00733997,734.048,-0.00706872,734.048,-0.00709409,734.048,-0.00761981,734.048,-0.00655182,
732.056,-0.0097089,732.056,-0.00919681,732.056,-0.00917263,732.056,-0.00713952,732.056,-0.00721702,732.056,-0.0071082,732.056,-0.00782925,732.056,-0.00611155,
730.063,-0.0100987,730.063,-0.00987366,730.063,-0.0100068,730.063,-0.00787195,730.063,-0.00783275,730.063,-0.00778755,730.063,-0.00829237,730.063,-0.00700398,
728.068,-0.0116686,728.068,-0.0113413,728.068,-0.0112358,728.068,-0.0091486,728.068,-0.0091887,728.068,-0.00899969,728.068,-0.00969579,728.068,-0.00824513,
725.93,-0.0132347,725.93,-0.0128951,725.93,-0.0130495,725.93,-0.010927,725.93,-0.0108906,725.93,-0.010464,725.93,-0.0113618,725.93,-0.0100419,
723.932,-0.0142145,723.932,-0.0140089,723.932,-0.0139771,723.932,-0.0121834,723.932,-0.0119167,723.932,-0.0118294,723.932,-0.0122632,723.932,-0.0110199,
721.933,-0.014887,721.933,-0.0150187,721.933,-0.0147165,721.933,-0.0127067,721.933,-0.0126864,721.933,-0.0124916,721.933,-0.012995,721.933,-0.0115212,
719.933,-0.0153947,719.933,-0.0151441,719.933,-0.0149366,719.933,-0.0128136,719.933,-0.0129336,719.933,-0.0128755,719.933,-0.0132728,719.933,-0.0122524,
717.931,-0.0154652,717.931,-0.0153004,717.931,-0.0151412,717.931,-0.0130504,717.931,-0.0130773,717.931,-0.0128379,717.931,-0.0134041,717.931,-0.0121877,
715.928,-0.0152942,715.928,-0.0149327,715.928,-0.0147878,715.928,-0.0127255,715.928,-0.0125623,715.928,-0.0126362,715.928,-0.0132083,715.928,-0.0117178,
714.067,-0.0146101,714.067,-0.0141022,714.067,-0.0141262,714.067,-0.0121685,714.067,-0.0118464,714.067,-0.0119257,714.067,-0.0120445,714.067,-0.0111549,
712.062,-0.0131294,712.062,-0.0129423,712.062,-0.0128809,712.062,-0.0109917,712.062,-0.010758,712.062,-0.0103364,712.062,-0.0110603,712.062,-0.00986825,
710.055,-0.011631,710.055,-0.010832,710.055,-0.0108167,710.055,-0.00890581,710.055,-0.00871445,710.055,-0.00857484,710.055,-0.00920405,710.055,-0.00788156,
708.047,-0.00931393,708.047,-0.00903605,708.047,-0.00893381,708.047,-0.00664921,708.047,-0.0067369,708.047,-0.00679266,708.047,-0.00695206,708.047,-0.00595848,
706.037,-0.00691823,706.037,-0.00681478,706.037,-0.00633289,706.037,-0.00432839,706.037,-0.00432419,706.037,-0.00428538,706.037,-0.00485296,706.037,-0.00365664,
704.026,-0.00437416,704.026,-0.00400452,704.026,-0.00357259,704.026,-0.00145097,704.026,-0.00155844,704.026,-0.00131906,704.026,-0.00210104,704.026,-0.000419409,
702.014,-0.0011867,702.014,-0.00128995,702.014,-0.000856188,702.014,0.00116916,702.014,0.00117082,702.014,0.00157249,702.014,0.000658131,702.014,0.00226127,
700,0.00134011,700,0.00137389,700,0.00185652,700,0.00365976,700,0.00376383,700,0.00415196,700,0.00322118,700,0.00489626,
697.985,0.00354964,697.985,0.00383274,697.985,0.00409559,697.985,0.00622181,697.985,0.00615882,697.985,0.00659407,697.985,0.00571165,697.985,0.00708024,
695.969,0.00685928,695.969,0.00710868,695.969,0.00716581,695.969,0.0092659,695.969,0.0094152,695.969,0.00953087,695.969,0.0088952,695.969,0.0101708,
693.952,0.00838361,693.952,0.00866949,693.952,0.00891533,693.952,0.0113231,693.952,0.0110835,693.952,0.0112207,693.952,0.0103336,693.952,0.0120583,
691.933,0.010218,691.933,0.0103293,691.933,0.0103604,691.933,0.0129225,691.933,0.0130897,691.933,0.0130451,691.933,0.0124083,691.933,0.0140111,
690.057,0.01147,690.057,0.0117571,690.057,0.0122484,690.057,0.0144813,690.057,0.0143888,690.057,0.014372,690.057,0.0136196,690.057,0.0152776,
688.036,0.0132588,688.036,0.0132401,688.036,0.0135185,688.036,0.0155712,688.036,0.0161374,688.036,0.0156519,688.036,0.0153428,688.036,0.0166776,
686.013,0.0147243,686.013,0.0150158,686.013,0.0152782,686.013,0.0173362,686.013,0.0177403,686.013,0.0177256,686.013,0.0165409,686.013,0.0185682,
683.989,0.014988,683.989,0.0154783,683.989,0.015496,683.989,0.0176501,683.989,0.0176723,683.989,0.018176,683.989,0.0173319,683.989,0.0187815,
681.964,0.016066,681.964,0.0161555,681.964,0.0163857,681.964,0.0185059,681.964,0.0186898,681.964,0.0188101,681.964,0.0179511,681.964,0.019623,
679.937,0.0165571,679.937,0.0168601,679.937,0.0170082,679.937,0.0194722,679.937,0.019333,679.937,0.0192487,679.937,0.0186831,679.937,0.0205622,
678.054,0.0177159,678.054,0.0178832,678.054,0.0179873,678.054,0.0204567,678.054,0.0204427,678.054,0.020368,678.054,0.0196065,678.054,0.0214473,
676.025,0.0179127,676.025,0.0182705,676.025,0.0184163,676.025,0.0208916,676.025,0.0206469,676.025,0.0213068,676.025,0.0206309,676.025,0.0219449,
673.995,0.0178576,673.995,0.0179866,673.995,0.0183144,673.995,0.0206847,673.995,0.0205054,673.995,0.0207942,673.995,0.0199506,673.995,0.0215414,
671.963,0.0178906,671.963,0.0181948,671.963,0.0187196,671.963,0.0205824,671.963,0.0211046,671.963,0.0209281,671.963,0.0203944,671.963,0.0220487,
669.931,0.0194517,669.931,0.0191219,669.931,0.0190033,669.931,0.0217727,669.931,0.0217197,669.931,0.0222484,669.931,0.0210161,669.931,0.0227394,
668.042,0.0175772,668.042,0.0183134,668.042,0.0184091,668.042,0.0206944,668.042,0.0206082,668.042,0.0208541,668.042,0.0204084,668.042,0.0220717,
666.006,0.016727,666.006,0.0168306,666.006,0.01703,666.006,0.0194896,666.006,0.0198176,666.006,0.019737,666.006,0.0191576,666.006,0.0209324,
663.97,0.0162497,663.97,0.0164014,663.97,0.0165031,663.97,0.0191533,663.97,0.0191155,663.97,0.0189667,663.97,0.0185988,663.97,0.0202721,
661.932,0.0157639,661.932,0.0160607,661.932,0.0162954,661.932,0.0186887,661.932,0.0190395,661.932,0.0189351,661.932,0.0181629,661.932,0.0199285,
660.039,0.0158168,660.039,0.0160494,660.039,0.0161794,660.039,0.0187215,660.039,0.0183342,660.039,0.0185807,660.039,0.0180932,660.039,0.0198037,
657.999,0.0156816,657.999,0.0158154,657.999,0.0158837,657.999,0.0183675,657.999,0.0182743,657.999,0.0185982,657.999,0.0178807,657.999,0.0195538,
655.957,0.0153385,655.957,0.0157385,655.957,0.0158559,655.957,0.0181207,655.957,0.0183829,655.957,0.0182924,655.957,0.0178818,655.957,0.019577,
654.061,0.0151777,654.061,0.0153526,654.061,0.0156037,654.061,0.0178528,654.061,0.0185585,654.061,0.0180344,654.061,0.0176081,654.061,0.0197009,
652.017,0.0153031,652.017,0.0158158,652.017,0.0154925,652.017,0.0182352,652.017,0.0180809,652.017,0.0182293,652.017,0.0176984,652.017,0.0197389,
649.972,0.0159367,649.972,0.0161068,649.972,0.0162096,649.972,0.0186361,649.972,0.0185668,649.972,0.0187669,649.972,0.0182313,649.972,0.0200818,
648.072,0.015772,648.072,0.0160121,648.072,0.0165057,648.072,0.0185341,648.072,0.0192178,648.072,0.0186722,648.072,0.0181617,648.072,0.0200248,
646.024,0.0151967,646.024,0.0155585,646.024,0.0156078,646.024,0.0178546,646.024,0.0183088,646.024,0.0182793,646.024,0.0180597,646.024,0.0194443,
643.976,0.0156719,643.976,0.0159311,643.976,0.0162192,643.976,0.0184447,643.976,0.0188394,643.976,0.0188001,643.976,0.0181951,643.976,0.0201191,
642.072,0.0152726,642.072,0.0153926,642.072,0.0156879,642.072,0.0180775,642.072,0.0180175,642.072,0.0183024,642.072,0.0177232,642.072,0.0195731,
640.021,0.014932,640.021,0.0153239,640.021,0.0155202,640.021,0.0182435,640.021,0.0181225,640.021,0.018014,640.021,0.0177242,640.021,0.0193005,
637.969,0.0152616,637.969,0.0157009,637.969,0.0157572,637.969,0.0179906,637.969,0.0183239,637.969,0.0184539,637.969,0.0178308,637.969,0.0200642,
636.062,0.015312,636.062,0.0154867,636.062,0.0158902,636.062,0.0181868,636.062,0.0181977,636.062,0.0182706,636.062,0.0174668,636.062,0.0194262,
634.008,0.0150053,634.008,0.0155083,634.008,0.015701,634.008,0.0187145,634.008,0.0181924,634.008,0.0183462,634.008,0.0177447,634.008,0.0195869,
631.952,0.0150389,631.952,0.0156222,631.952,0.0156107,631.952,0.0184395,631.952,0.0183902,631.952,0.0187608,631.952,0.0177723,631.952,0.0198709,
630.042,0.0153059,630.042,0.0155802,630.042,0.0154535,630.042,0.0185185,630.042,0.0183115,630.042,0.018434,630.042,0.018093,630.042,0.0196891,
627.984,0.0151862,627.984,0.0154745,627.984,0.0156231,627.984,0.0187001,627.984,0.0183401,627.984,0.0183587,627.984,0.0178375,627.984,0.0201715,
626.072,0.0152847,626.072,0.0156372,626.072,0.015959,626.072,0.0187297,626.072,0.0184253,626.072,0.0185151,626.072,0.0181084,626.072,0.0199922,
624.012,0.0152899,624.012,0.0156855,624.012,0.0156236,624.012,0.018796,624.012,0.0185032,624.012,0.018754,624.012,0.0180526,624.012,0.0200603,
621.951,0.0154416,621.951,0.0159137,621.951,0.0159061,621.951,0.0186564,621.951,0.0187015,621.951,0.0187783,621.951,0.0182584,621.951,0.020014,
620.035,0.0154043,620.035,0.0156966,620.035,0.0159349,620.035,0.0185123,620.035,0.0188599,620.035,0.0186217,620.035,0.0181428,620.035,0.0201395,
617.972,0.0150659,617.972,0.0153359,617.972,0.0157998,617.972,0.0184569,617.972,0.0184393,617.972,0.0185732,617.972,0.0180309,617.972,0.020116,
616.054,0.0150066,616.054,0.0153694,616.054,0.0156486,616.054,0.0185248,616.054,0.0183281,616.054,0.0184705,616.054,0.0178232,616.054,0.0199822,
613.988,0.0148798,613.988,0.0151736,613.988,0.0155598,613.988,0.0183383,613.988,0.0183357,613.988,0.0181934,613.988,0.0178153,613.988,0.0198021,
612.069,0.0148566,612.069,0.0151795,612.069,0.0153179,612.069,0.0181652,612.069,0.0181427,612.069,0.0183913,612.069,0.017759,612.069,0.0194584,
610.001,0.0146644,610.001,0.0149845,610.001,0.015534,610.001,0.0181126,610.001,0.0180221,610.001,0.0182616,610.001,0.01776,610.001,0.0198114,
607.931,0.0145082,607.931,0.0150282,607.931,0.0151178,607.931,0.0182316,607.931,0.0180528,607.931,0.018327,607.931,0.0175096,607.931,0.0195345,
606.009,0.0145114,606.009,0.0146658,606.009,0.0150839,606.009,0.0180719,606.009,0.0179273,606.009,0.018072,606.009,0.0174066,606.009,0.0194553,
603.937,0.0146101,603.937,0.0147663,603.937,0.0150217,603.937,0.0181357,603.937,0.0181093,603.937,0.0180803,603.937,0.0175172,603.937,0.0194115,
602.013,0.0143044,602.013,0.0147143,602.013,0.0147733,602.013,0.0182618,602.013,0.0177182,602.013,0.0179876,602.013,0.0175864,602.013,0.0191467,
599.939,0.0143529,599.939,0.0147385,599.939,0.0149362,599.939,0.0181269,599.939,0.0175631,599.939,0.0177035,599.939,0.0172739,599.939,0.0193046,
598.012,0.0139934,598.012,0.0141869,598.012,0.0144391,598.012,0.0176022,598.012,0.0174923,598.012,0.0175256,598.012,0.0173198,598.012,0.0188727,
595.936,0.0138465,595.936,0.0141623,595.936,0.0143615,595.936,0.0178876,595.936,0.0174047,595.936,0.0177007,595.936,0.0171112,595.936,0.0191095,
594.008,0.0137539,594.008,0.014167,594.008,0.0147982,594.008,0.0177,594.008,0.0172711,594.008,0.0175423,594.008,0.0171507,594.008,0.0189165,
591.93,0.0136933,591.93,0.0139235,591.93,0.0142423,591.93,0.0175237,591.93,0.0171477,591.93,0.017258,591.93,0.0169532,591.93,0.0189906,
589.999,0.0135059,589.999,0.01387,589.999,0.0142414,589.999,0.0174795,589.999,0.0169594,589.999,0.0170723,589.999,0.0168916,589.999,0.0187484,
588.067,0.0134162,588.067,0.0136468,588.067,0.0139014,588.067,0.0172556,588.067,0.0167665,588.067,0.017164,588.067,0.0167152,588.067,0.0186559,
585.986,0.0128938,585.986,0.013142,585.986,0.0137426,585.986,0.0170157,585.986,0.0166193,585.986,0.0166962,585.986,0.0167327,585.986,0.0183579,
584.052,0.0127399,584.052,0.0133496,584.052,0.0133426,584.052,0.0167358,584.052,0.016322,584.052,0.0165378,584.052,0.0165503,584.052,0.0180627,
581.969,0.0127405,581.969,0.0126317,581.969,0.0130814,581.969,0.0165989,581.969,0.016075,581.969,0.0163069,581.969,0.0164644,581.969,0.0177271,
580.033,0.0122646,580.033,0.0125555,580.033,0.0129395,580.033,0.0163958,580.033,0.0158179,580.033,0.0159349,580.033,0.0162402,580.033,0.0176879,
577.948,0.0119498,577.948,0.0122798,577.948,0.0125156,577.948,0.0157882,577.948,0.015585,577.948,0.0156217,577.948,0.0163414,577.948,0.0173909,
576.01,0.0114101,576.01,0.0115984,576.01,0.0121893,576.01,0.0156386,576.01,0.015094,576.01,0.0151899,576.01,0.0159815,576.01,0.0169227,
574.072,0.0111206,574.072,0.0114313,574.072,0.0116768,574.072,0.0153145,574.072,0.0146676,574.072,0.0148621,574.072,0.0157355,574.072,0.0167577,
571.983,0.0107252,571.983,0.0110109,571.983,0.0113891,571.983,0.0149705,571.983,0.0144851,571.983,0.0146986,571.983,0.0152546,571.983,0.0162877,
570.043,0.0105093,570.043,0.0105859,570.043,0.0110163,570.043,0.0146641,570.043,0.0140934,570.043,0.0141927,570.043,0.0147555,570.043,0.0160758,
567.952,0.009735,567.952,0.0100092,567.952,0.0103261,567.952,0.0139404,567.952,0.0134696,567.952,0.013616,567.952,0.0140987,567.952,0.0154333,
566.01,0.00936793,566.01,0.00985402,566.01,0.0100783,566.01,0.0135278,566.01,0.0130989,566.01,0.0132491,566.01,0.0134907,566.01,0.0149729,
564.067,0.00886521,564.067,0.00907247,564.067,0.00931003,564.067,0.0131053,564.067,0.0125885,564.067,0.0128928,564.067,0.01271,564.067,0.0146915,
561.973,0.00827265,561.973,0.00838342,561.973,0.00913644,561.973,0.0123656,561.973,0.012203,561.973,0.0122494,561.973,0.0119887,561.973,0.0140707,
560.028,0.00769078,560.028,0.00790093,560.028,0.0080832,560.028,0.012039,560.028,0.0115241,560.028,0.0116871,560.028,0.0113864,560.028,0.0134918,
557.932,0.00715271,557.932,0.00737605,557.932,0.00780609,557.932,0.0115317,557.932,0.0110023,557.932,0.0111728,557.932,0.0107561,557.932,0.0129005,
555.985,0.00663809,555.985,0.00674889,555.985,0.00717058,555.985,0.0107569,555.985,0.0105272,555.985,0.0106487,555.985,0.0102835,555.985,0.0124696,
554.037,0.00589414,554.037,0.00600029,554.037,0.00636324,554.037,0.0102996,554.037,0.00985595,554.037,0.00994962,554.037,0.0095442,554.037,0.0117787,
551.938,0.00538793,551.938,0.0055498,551.938,0.00582109,551.938,0.0098076,551.938,0.00922634,551.938,0.00942594,551.938,0.00914144,551.938,0.0113287,
549.988,0.00464433,549.988,0.00498384,549.988,0.00524445,549.988,0.00907504,549.988,0.00875215,549.988,0.0087559,549.988,0.0084417,549.988,0.010834,
548.038,0.00411023,548.038,0.0043221,548.038,0.00465377,548.038,0.00848412,548.038,0.00807624,548.038,0.00810417,548.038,0.00779023,548.038,0.0102512,
545.936,0.00368164,545.936,0.00400433,545.936,0.00444359,545.936,0.00808642,545.936,0.00760729,545.936,0.00786954,545.936,0.00755763,545.936,0.00979232,
543.983,0.00329966,543.983,0.00354199,543.983,0.00388335,543.983,0.00774087,543.983,0.00735894,543.983,0.00751362,543.983,0.00705424,543.983,0.00960065,
542.03,0.00306539,542.03,0.00346673,542.03,0.00363172,542.03,0.00758537,542.03,0.00714458,542.03,0.00731087,542.03,0.00694555,542.03,0.00948541,
539.925,0.00325099,539.925,0.00350785,539.925,0.00382062,539.925,0.00777302,539.925,0.00733883,539.925,0.00746629,539.925,0.00721526,539.925,0.00963929,
537.97,0.00334103,537.97,0.00374249,537.97,0.00386403,537.97,0.00794018,537.97,0.00738042,537.97,0.00759477,537.97,0.00730579,537.97,0.00982566,
536.014,0.003916,536.014,0.00419425,536.014,0.0045948,536.014,0.00851168,536.014,0.00799721,536.014,0.0083303,536.014,0.00796985,536.014,0.0103656,
534.057,0.00452297,534.057,0.00468753,534.057,0.0049974,534.057,0.00906859,534.057,0.00846482,534.057,0.0088017,534.057,0.00836973,534.057,0.0108564,
531.948,0.00568209,531.948,0.00596223,531.948,0.00619064,531.948,0.0102627,531.948,0.00978396,531.948,0.0100274,531.948,0.00968593,531.948,0.01224,
529.989,0.00690233,529.989,0.00694341,529.989,0.00737987,529.989,0.0113576,529.989,0.0109695,529.989,0.0111563,529.989,0.0109614,529.989,0.0136321,
528.03,0.00800357,528.03,0.00838084,528.03,0.00869716,528.03,0.0128065,528.03,0.0122588,528.03,0.0126013,528.03,0.0122626,528.03,0.0148378,
526.069,0.00984536,526.069,0.0103236,526.069,0.0102956,526.069,0.0145659,526.069,0.0141476,526.069,0.0143472,526.069,0.0139324,526.069,0.016627,
523.957,0.0117086,523.957,0.0122001,523.957,0.0125331,523.957,0.0165041,523.957,0.0159529,523.957,0.01628,523.957,0.0161446,523.957,0.0185166,
521.994,0.0131002,521.994,0.0136616,521.994,0.013914,521.994,0.0180434,521.994,0.0177086,521.994,0.0180047,521.994,0.0175287,521.994,0.0202241,
520.031,0.0151084,520.031,0.015603,520.031,0.0157481,520.031,0.0201205,520.031,0.0194594,520.031,0.0197392,520.031,0.0195374,520.031,0.0222837,
518.067,0.0170347,518.067,0.0172771,518.067,0.0175756,518.067,0.0218959,518.067,0.0213962,518.067,0.0214575,518.067,0.0212318,518.067,0.0238786,
515.951,0.0189006,515.951,0.0190473,515.951,0.0191079,515.951,0.0235508,515.951,0.0230118,515.951,0.0232017,515.951,0.0229858,515.951,0.0257013,
513.985,0.0202475,513.985,0.020276,513.985,0.0206994,513.985,0.0252807,513.985,0.0246396,513.985,0.0248071,513.985,0.02463,513.985,0.0271898,
512.019,0.0213674,512.019,0.0217136,512.019,0.0220034,512.019,0.026485,512.019,0.025942,512.019,0.0263396,512.019,0.0259965,512.019,0.0286926,
510.0513,0.022441,510.0513,0.0226661,510.0513,0.0232172,510.0513,0.027518,510.0513,0.0269432,510.0513,0.0270862,510.0513,0.0271088,510.0513,0.0297184,
507.932,0.0238631,507.932,0.0241974,507.932,0.0244947,507.932,0.0286292,507.932,0.0283419,507.932,0.0283211,507.932,0.0282102,507.932,0.0306922,
505.962,0.0243497,505.962,0.0246808,505.962,0.0249326,505.962,0.0294798,505.962,0.0290545,505.962,0.0292501,505.962,0.0291041,505.962,0.0316409,
503.992,0.0249266,503.992,0.0250966,503.992,0.0255867,503.992,0.0301593,503.992,0.0295886,503.992,0.029714,503.992,0.0295962,503.992,0.0323301,
502.022,0.025383,502.022,0.0255755,502.022,0.0259524,502.022,0.0305154,502.022,0.0299702,502.022,0.0300592,502.022,0.0301985,502.022,0.0328282,
500.05,0.0258495,500.05,0.0258164,500.05,0.0263287,500.05,0.0307304,500.05,0.0301373,500.05,0.0305357,500.05,0.0303256,500.05,0.033184,
497.926,0.0255413,497.926,0.0258826,497.926,0.0262527,497.926,0.0308105,497.926,0.0302694,497.926,0.0307028,497.926,0.0304027,497.926,0.0331627,
495.953,0.0257851,495.953,0.0260377,495.953,0.026404,495.953,0.0309139,495.953,0.0304907,495.953,0.030813,495.953,0.0305319,495.953,0.0333197,
493.978,0.0253016,493.978,0.0256825,493.978,0.0258626,493.978,0.0305428,493.978,0.0300861,493.978,0.0302966,493.978,0.0301126,493.978,0.0330066,
492.003,0.0250018,492.003,0.0253535,492.003,0.0258499,492.003,0.0303331,492.003,0.0296192,492.003,0.0300881,492.003,0.0299044,492.003,0.0328092,
490.028,0.0247375,490.028,0.025007,490.028,0.0252478,490.028,0.030164,490.028,0.0294536,490.028,0.0298116,490.028,0.0297363,490.028,0.0325772,
488.051,0.0243863,488.051,0.0244271,488.051,0.024647,488.051,0.0293168,488.051,0.0287814,488.051,0.0291677,488.051,0.0289765,488.051,0.0320298,
486.074,0.0237231,486.074,0.0236494,486.074,0.0244209,486.074,0.0288726,486.074,0.0283539,486.074,0.028874,486.074,0.0287284,486.074,0.0316936,
483.944,0.023158,483.944,0.023442,483.944,0.0238798,483.944,0.0286502,483.944,0.028125,483.944,0.0285104,483.944,0.0283163,483.944,0.0315072,
481.965,0.0225359,481.965,0.0227408,481.965,0.0232972,481.965,0.0280476,481.965,0.0275081,481.965,0.0279383,481.965,0.0277921,481.965,0.0309651,
479.985,0.02187,479.985,0.0220247,479.985,0.0224096,479.985,0.0273182,479.985,0.0267432,479.985,0.0272077,479.985,0.0271654,479.985,0.0303045,
478.004,0.0216947,478.004,0.0218525,478.004,0.0222663,478.004,0.0270309,478.004,0.0265542,478.004,0.0272077,478.004,0.0268191,478.004,0.0301293,
476.023,0.0220339,476.023,0.022022,476.023,0.0224833,476.023,0.0271717,476.023,0.026723,476.023,0.0273343,476.023,0.0273176,476.023,0.0303947,
474.041,0.0222929,474.041,0.0226104,474.041,0.0226629,474.041,0.0277914,474.041,0.0273526,474.041,0.02789,474.041,0.0278074,474.041,0.0311682,
472.058,0.0233332,472.058,0.023634,472.058,0.0241273,472.058,0.0287951,472.058,0.0285297,472.058,0.0288566,472.058,0.0288958,472.058,0.0324045,
470.075,0.02454,470.075,0.024707,470.075,0.0254281,470.075,0.0301154,470.075,0.0298346,470.075,0.030198,470.075,0.030142,470.075,0.0338242,
467.938,0.0263395,467.938,0.0264479,467.938,0.026805,467.938,0.0317289,467.938,0.031603,467.938,0.0321657,467.938,0.0319197,467.938,0.0356022,
465.952,0.0278657,465.952,0.0281058,465.952,0.0285536,465.952,0.0331491,465.952,0.0330337,465.952,0.0338346,465.952,0.0335502,465.952,0.0370958,
463.966,0.0295145,463.966,0.0297754,463.966,0.0306057,463.966,0.03504,463.966,0.0352212,463.966,0.0353826,463.966,0.0353588,463.966,0.0389115,
461.98,0.0312685,461.98,0.0312874,461.98,0.0319784,461.98,0.0364249,461.98,0.0366687,461.98,0.0368294,461.98,0.0368461,461.98,0.0405845,
459.992,0.0321216,459.992,0.0326519,459.992,0.0328324,459.992,0.0376004,459.992,0.037947,459.992,0.0379706,459.992,0.0380105,459.992,0.0417464,
458.004,0.0334823,458.004,0.0341691,458.004,0.0344485,458.004,0.0391032,458.004,0.0392543,458.004,0.039512,458.004,0.0396719,458.004,0.0434464,
456.015,0.0346351,456.015,0.0347986,456.015,0.0352,456.015,0.0400158,456.015,0.0402682,456.015,0.0403731,456.015,0.0405681,456.015,0.0445102,
454.025,0.0354426,454.025,0.03578,454.025,0.036132,454.025,0.040778,454.025,0.041096,454.025,0.0412575,454.025,0.041361,454.025,0.0453211,
452.035,0.0360284,452.035,0.0363192,452.035,0.0370625,452.035,0.0417889,452.035,0.0420081,452.035,0.0421248,452.035,0.0422094,452.035,0.046466,
450.044,0.036527,450.044,0.036871,450.044,0.0373731,450.044,0.0421234,450.044,0.0425509,450.044,0.0426431,450.044,0.0429333,450.044,0.0465831,
448.052,0.0368781,448.052,0.0370506,448.052,0.0376158,448.052,0.0424236,448.052,0.0427084,448.052,0.0429436,448.052,0.0432427,448.052,0.0469346,
446.059,0.0373097,446.059,0.037735,446.059,0.0382044,446.059,0.0429825,446.059,0.0434506,446.059,0.0435429,446.059,0.0436955,446.059,0.0475782,
444.066,0.0375144,444.066,0.0378289,444.066,0.0383861,444.066,0.0432197,444.066,0.0436794,444.066,0.0439022,444.066,0.0439129,444.066,0.0477199,
442.072,0.0374206,442.072,0.0380405,442.072,0.0384521,442.072,0.0430563,442.072,0.0440924,442.072,0.0439615,442.072,0.0441017,442.072,0.0476789,
439.923,0.0376787,439.923,0.0381924,439.923,0.0384312,439.923,0.043494,439.923,0.0440086,439.923,0.0441481,439.923,0.0444487,439.923,0.0481593,
437.928,0.0377194,437.928,0.0383997,437.928,0.0387033,437.928,0.0434644,437.928,0.0437828,437.928,0.0442445,437.928,0.0443432,437.928,0.0480558,
435.932,0.0372822,435.932,0.0376233,435.932,0.0382116,435.932,0.0429854,435.932,0.0434108,435.932,0.0436698,435.932,0.0438826,435.932,0.0478061,
433.935,0.0369582,433.935,0.0375938,433.935,0.0377614,433.935,0.042868,433.935,0.0432835,433.935,0.0434509,433.935,0.0438152,433.935,0.0476254,
431.937,0.0368441,431.937,0.0370586,431.937,0.0376439,431.937,0.0429037,431.937,0.0430433,431.937,0.0434236,431.937,0.0438054,431.937,0.0478458,
429.938,0.036649,429.938,0.0369515,429.938,0.0377172,429.938,0.042605,429.938,0.0429214,429.938,0.0433184,429.938,0.0437757,429.938,0.047679,
427.939,0.0361708,427.939,0.036785,427.939,0.0371458,427.939,0.0425037,427.939,0.0427054,427.939,0.0431495,427.939,0.043429,427.939,0.0474277,
425.94,0.0358521,425.94,0.0364876,425.94,0.036935,425.94,0.0420479,425.94,0.0425287,425.94,0.0425479,425.94,0.0434232,425.94,0.0472517,
423.939,0.0359422,423.939,0.0361641,423.939,0.0369841,423.939,0.0422543,423.939,0.0422903,423.939,0.0429064,423.939,0.0432207,423.939,0.0476447,
421.938,0.0359088,421.938,0.0363855,421.938,0.0368789,421.938,0.0419633,421.938,0.042361,421.938,0.0427376,421.938,0.0431015,421.938,0.0476293,
419.936,0.0357632,419.936,0.0359523,419.936,0.036489,419.936,0.0416422,419.936,0.0422049,419.936,0.0425612,419.936,0.042983,419.936,0.0470475,
417.933,0.0352561,417.933,0.0355376,417.933,0.0361746,417.933,0.0414412,417.933,0.041981,417.933,0.0425741,417.933,0.0427893,417.933,0.0470702,
415.93,0.0349767,415.93,0.0352159,415.93,0.0358765,415.93,0.0411284,415.93,0.0416094,415.93,0.0420979,415.93,0.0424284,415.93,0.0467092,
413.926,0.0342876,413.926,0.0348589,413.926,0.0357523,413.926,0.0408184,413.926,0.0412344,413.926,0.0417612,413.926,0.0421123,413.926,0.0464086,
412.076,0.0339261,412.076,0.0345272,412.076,0.0352019,412.076,0.0403038,412.076,0.0408857,412.076,0.0415471,412.076,0.041748,412.076,0.0460011,
410.071,0.0334519,410.071,0.0338263,410.071,0.0346356,410.071,0.0399446,410.071,0.0403606,410.071,0.0410387,410.071,0.0412621,410.071,0.0457074,
408.065,0.0327226,408.065,0.0332382,408.065,0.0339363,408.065,0.0393683,408.065,0.0399171,408.065,0.0403774,408.065,0.0406377,408.065,0.0451164,
406.058,0.0322508,406.058,0.0328075,406.058,0.0333694,406.058,0.0388197,406.058,0.0391567,406.058,0.0397444,406.058,0.0402084,406.058,0.0446399,
404.051,0.0317194,404.051,0.0320766,404.051,0.032742,404.051,0.0382957,404.051,0.0386868,404.051,0.0390525,404.051,0.0397182,404.051,0.0441707,
402.043,0.0309537,402.043,0.0313566,402.043,0.0323218,402.043,0.0377034,402.043,0.0381217,402.043,0.038488,402.043,0.0390271,402.043,0.0437467,
400.035,0.030222,400.035,0.0305087,400.035,0.0316844,400.035,0.0369679,400.035,0.0374513,400.035,0.0379564,400.035,0.0383169,400.035,0.0428364,
398.026,0.029999,398.026,0.0301276,398.026,0.0308641,398.026,0.0363973,398.026,0.0368077,398.026,0.0375116,398.026,0.0378119,398.026,0.0422414,
396.016,0.0293558,396.016,0.0298814,396.016,0.0306008,396.016,0.036258,396.016,0.0367472,396.016,0.0370787,396.016,0.03752,396.016,0.0420502,
394.005,0.0290278,394.005,0.0298167,394.005,0.030517,394.005,0.0361877,394.005,0.0368201,394.005,0.0369781,394.005,0.0373763,394.005,0.0419992,
391.994,0.02901,391.994,0.0291324,391.994,0.0300186,391.994,0.0359288,391.994,0.0364898,391.994,0.0366647,391.994,0.0371561,391.994,0.0414931,
389.983,0.0290099,389.983,0.029742,389.983,0.0301674,389.983,0.0362182,389.983,0.0364991,389.983,0.0368679,389.983,0.0373519,389.983,0.0417355,
387.97,0.0289996,387.97,0.0295128,387.97,0.0302775,387.97,0.0361169,387.97,0.0365175,387.97,0.0368563,387.97,0.0374382,387.97,0.0422375,
385.957,0.0290743,385.957,0.029415,385.957,0.0304142,385.957,0.0363117,385.957,0.0368702,385.957,0.0371488,385.957,0.037591,385.957,0.0420844,
383.944,0.029846,383.944,0.030168,383.944,0.0309723,383.944,0.0371682,383.944,0.0375937,383.944,0.0377716,383.944,0.0386319,383.944,0.042982,
381.929,0.0305903,381.929,0.03078,381.929,0.0317489,381.929,0.0378784,381.929,0.0379742,381.929,0.03842,381.929,0.039044,381.929,0.0437908,
380.069,0.0309904,380.069,0.0314978,380.069,0.0320687,380.069,0.038502,380.069,0.0388548,380.069,0.0393345,380.069,0.0396972,380.069,0.0442033,
378.054,0.0320269,378.054,0.0323927,378.054,0.0332084,378.054,0.0396062,378.054,0.0397575,378.054,0.0403427,378.054,0.0410293,378.054,0.0455728,
376.038,0.0330951,376.038,0.0337341,376.038,0.034225,376.038,0.0410286,376.038,0.0412293,376.038,0.0416001,376.038,0.0423578,376.038,0.0470665,
374.021,0.0348041,374.021,0.035233,374.021,0.0357313,374.021,0.0426492,374.021,0.0430462,374.021,0.0430486,374.021,0.0435185,374.021,0.0483284,
372.004,0.03593814,372.004,0.036491,372.004,0.0370915,372.004,0.0438651,372.004,0.0439297,372.004,0.0446729,372.004,0.0450529,372.004,0.0496889,
369.986,0.0369689,369.986,0.0378435,369.986,0.0386143,369.986,0.0451788,369.986,0.0453918,369.986,0.0459692,369.986,0.0464555,369.986,0.0510789,
367.968,0.0384375,367.968,0.0392944,367.968,0.0399775,367.968,0.0467327,367.968,0.0468175,367.968,0.0471622,367.968,0.0479541,367.968,0.0527621,
365.948,0.0398344,365.948,0.0405603,365.948,0.0410452,365.948,0.0480214,365.948,0.0480034,365.948,0.0483649,365.948,0.0493162,365.948,0.0541715,
363.929,0.0408377,363.929,0.0418097,363.929,0.0422723,363.929,0.0491923,363.929,0.0491078,363.929,0.0498165,363.929,0.0505829,363.929,0.0554233,
362.064,0.0416596,362.064,0.0422301,362.064,0.0429531,362.064,0.0499358,362.064,0.0500219,362.064,0.0505221,362.064,0.0513217,362.064,0.0564152,
360.043,0.0424511,360.043,0.0434792,360.043,0.0438322,360.043,0.0510081,360.043,0.0513328,360.043,0.0515603,360.043,0.0525252,360.043,0.0574631,
358.022,0.0427296,358.022,0.0436571,358.022,0.0439623,358.022,0.0514728,358.022,0.051898,358.022,0.0521203,358.022,0.05306,358.022,0.0581783,
356,0.0434207,356,0.0441666,356,0.044613,356,0.0520971,356,0.0527904,356,0.0527049,356,0.0539602,356,0.0591623,
353.977,0.0438907,353.977,0.044784,353.977,0.0450131,353.977,0.0527498,353.977,0.0533073,353.977,0.0533475,353.977,0.0544097,353.977,0.0598338,
351.954,0.0439817,351.954,0.0448724,351.954,0.0452986,351.954,0.0527993,351.954,0.053373,351.954,0.0534059,351.954,0.054694,351.954,0.0602696,
349.93,0.0439664,349.93,0.0451616,349.93,0.0453438,349.93,0.0531471,349.93,0.053556,349.93,0.0538618,349.93,0.055107,349.93,0.0605811,
348.062,0.0439627,348.062,0.045044,348.062,0.0452121,348.062,0.0529615,348.062,0.0532119,348.062,0.053778,348.062,0.0552039,348.062,0.0607338,
346.037,0.0441227,346.037,0.0453237,346.037,0.0451895,346.037,0.0533411,346.037,0.0532008,346.037,0.0539526,346.037,0.0554641,346.037,0.061125,
344.012,0.0442007,344.012,0.0454383,344.012,0.0455106,344.012,0.0537479,344.012,0.0536478,344.012,0.0542752,344.012,0.0558818,344.012,0.0615571,
341.986,0.0440257,341.986,0.0453929,341.986,0.0451358,341.986,0.0538114,341.986,0.0533618,341.986,0.0543565,341.986,0.0559156,341.986,0.0617198,
339.959,0.0439537,339.959,0.045053,339.959,0.0450649,339.959,0.0535893,339.959,0.0532427,339.959,0.0542468,339.959,0.0560263,339.959,0.0620302,
337.932,0.0437428,337.932,0.0451711,337.932,0.0448209,337.932,0.0536451,337.932,0.0530764,337.932,0.0542544,337.932,0.056113,337.932,0.0621788,
336.061,0.0431661,336.061,0.0445666,336.061,0.0446221,336.061,0.053397,336.061,0.0526747,336.061,0.0537224,336.061,0.0560793,336.061,0.0622844,
334.032,0.0431721,334.032,0.0444375,334.032,0.0442646,334.032,0.0532728,334.032,0.0525663,334.032,0.0536641,334.032,0.0559709,334.032,0.0623764,
332.004,0.0429676,332.004,0.0441977,332.004,0.0439778,332.004,0.0531257,332.004,0.0524917,332.004,0.0535634,332.004,0.0559896,332.004,0.0625572,
329.975,0.042648,329.975,0.0440649,329.975,0.0436791,329.975,0.0528464,329.975,0.0522331,329.975,0.053411,329.975,0.0559735,329.975,0.0626164,
327.945,0.0425385,327.945,0.0437017,327.945,0.0435431,327.945,0.0528518,327.945,0.0520764,327.945,0.053264,327.945,0.0560275,327.945,0.063129,
326.071,0.0425991,326.071,0.0437074,326.071,0.043323,326.071,0.0525753,326.071,0.052176,326.071,0.0534195,326.071,0.0563195,326.071,0.0637273,
324.04,0.0428821,324.04,0.0438077,324.04,0.0436006,324.04,0.0529864,324.04,0.0523857,324.04,0.0538123,324.04,0.056855,324.04,0.0648437,
322.009,0.0437102,322.009,0.0441223,322.009,0.0438929,322.009,0.0533263,322.009,0.0526697,322.009,0.054451,322.009,0.058237,322.009,0.0669892,
319.977,0.0447104,319.977,0.0443455,319.977,0.0446151,319.977,0.0537522,319.977,0.0534263,319.977,0.0553459,319.977,0.0598938,319.977,0.0699164,
317.945,0.0466498,317.945,0.045325,317.945,0.0458918,317.945,0.0548065,317.945,0.0546462,317.945,0.0573276,317.945,0.0635643,317.945,0.0762391,
316.068,0.0485602,316.068,0.0463917,316.068,0.0478081,316.068,0.055727,316.068,0.0561294,316.068,0.0601543,316.068,0.0689582,316.068,0.0860712,
314.035,0.0521121,314.035,0.0485154,314.035,0.0515395,314.035,0.058331,314.035,0.0599838,314.035,0.0664892,314.035,0.0806447,314.035,0.106161,
312.001,0.0571525,312.001,0.0525538,312.001,0.0586996,312.001,0.062059,312.001,0.0664239,312.001,0.078454,312.001,0.104407,312.001,0.148904,
309.967,0.0642109,309.967,0.0591602,309.967,0.0713831,309.967,0.069297,309.967,0.0792309,309.967,0.101559,309.967,0.149153,309.967,0.231563,
307.932,0.0759585,307.932,0.0751946,307.932,0.100074,307.932,0.0855623,307.932,0.10695,307.932,0.154171,307.932,0.250454,307.932,0.400539,
306.053,0.0933957,306.053,0.100359,306.053,0.148263,306.053,0.112597,306.053,0.155668,306.053,0.245167,306.053,0.424167,306.053,0.714399,
304.018,0.120645,304.018,0.14478,304.018,0.236666,304.018,0.159732,304.018,0.240722,304.018,0.409043,304.018,0.743593,304.018,1.26216,
301.981,0.151737,301.981,0.196043,301.981,0.331039,301.981,0.212916,301.981,0.338477,301.981,0.589558,301.981,1.10729,301.981,1.88247,
299.945,0.173049,299.945,0.229199,299.945,0.396496,299.945,0.247486,299.945,0.400533,299.945,0.714061,299.945,1.35319,299.945,2.2976,
298.064,0.188279,298.064,0.247841,298.064,0.433273,298.064,0.26799,298.064,0.437893,298.064,0.785775,298.064,1.50048,298.064,2.56841,
296.026,0.200648,296.026,0.263685,296.026,0.461701,296.026,0.284412,296.026,0.468016,296.026,0.842695,296.026,1.61073,296.026,2.69456,
293.988,0.209475,293.988,0.271456,293.988,0.47577,293.988,0.293165,293.988,0.482378,293.988,0.872148,293.988,1.66529,293.988,2.77791,
291.949,0.214313,291.949,0.270902,291.949,0.474118,291.949,0.293105,291.949,0.482006,291.949,0.872107,291.949,1.66595,291.949,2.78553,
290.067,0.216658,290.067,0.267479,290.067,0.466967,290.067,0.290256,290.067,0.475154,290.067,0.859727,290.067,1.64263,290.067,2.76256,
288.028,0.214375,288.028,0.253863,288.028,0.440739,288.028,0.276352,288.028,0.449742,288.028,0.812846,288.028,1.5482,288.028,2.62331,
285.988,0.209898,285.988,0.237781,285.988,0.408094,285.988,0.259694,285.988,0.418133,285.988,0.752344,285.988,1.43121,285.988,2.4691,
283.947,0.204096,283.947,0.219844,283.947,0.373423,283.947,0.241209,283.947,0.384116,283.947,0.687249,283.947,1.3039,283.947,2.25535,
282.063,0.197366,282.063,0.201661,282.063,0.337674,282.063,0.222288,282.063,0.349607,282.063,0.622517,282.063,1.17506,282.063,2.05363,
280.022,0.190414,280.022,0.184133,280.022,0.303212,280.022,0.202969,280.022,0.315407,280.022,0.55635,280.022,1.04514,280.022,1.82182,
277.98,0.181399,277.98,0.163237,277.98,0.262909,277.98,0.182324,277.98,0.275807,277.98,0.479375,277.98,0.898284,277.98,1.56445,
275.9375,0.17364,275.9375,0.146075,275.9375,0.22958,275.9375,0.164595,275.9375,0.242938,275.9375,0.41808,275.9375,0.770743,275.9375,1.34618,
274.052,0.165447,274.052,0.130397,274.052,0.199581,274.052,0.147531,274.052,0.212353,274.052,0.360689,274.052,0.660311,274.052,1.14464,
272.009,0.157762,272.009,0.116584,272.009,0.173234,272.009,0.13354,272.009,0.18684,272.009,0.310424,272.009,0.562196,272.009,0.968177,
269.965,0.150109,269.965,0.104945,269.965,0.151588,269.965,0.121406,269.965,0.164858,269.965,0.269022,269.965,0.481484,269.965,0.825372,
268.078,0.142051,268.078,0.0940716,268.078,0.131509,268.078,0.109878,268.078,0.144638,268.078,0.229924,268.078,0.405964,268.078,0.693033,
266.034,0.135416,266.034,0.0865761,266.034,0.117252,266.034,0.102089,266.034,0.131383,266.034,0.204466,266.034,0.354677,266.034,0.60068,
263.989,0.125818,263.989,0.0775463,263.989,0.103075,263.989,0.0932757,263.989,0.116174,263.989,0.178323,263.989,0.305971,263.989,0.513779,
261.944,0.118037,261.944,0.0722921,261.944,0.0942593,261.944,0.0877395,261.944,0.107665,261.944,0.162962,261.944,0.278677,261.944,0.466241,
260.055,0.11422,260.055,0.0713651,260.055,0.0923937,260.055,0.0872007,260.055,0.106093,260.055,0.159957,260.055,0.271489,260.055,0.453225,
258.009,0.109045,258.009,0.0722588,258.009,0.0939559,258.009,0.0882379,258.009,0.107582,258.009,0.163344,258.009,0.279312,258.009,0.46719,
255.963,0.106267,255.963,0.0764817,255.963,0.101067,255.963,0.092573,255.963,0.114366,255.963,0.176847,255.963,0.306647,255.963,0.513223,
254.073,0.104511,254.073,0.0843321,254.073,0.113988,254.073,0.100927,254.073,0.12765,254.073,0.202765,254.073,0.357792,254.073,0.604933,
252.026,0.104881,252.026,0.0950789,252.026,0.131477,252.026,0.112298,252.026,0.144803,252.026,0.235301,252.026,0.423986,252.026,0.719059,
249.978,0.107911,249.978,0.111703,249.978,0.157889,249.978,0.129523,249.978,0.171155,249.978,0.286209,249.978,0.523036,249.978,0.899129,
247.942,0.112286,247.942,0.131094,247.942,0.188114,247.942,0.150187,247.942,0.2016,247.942,0.344344,247.942,0.639074,247.942,1.10475,
246.063,0.116333,246.063,0.146932,246.063,0.212363,246.063,0.167394,246.063,0.226402,246.063,0.39187,246.063,0.731417,246.063,1.26669,
244.026,0.125622,244.026,0.174839,244.026,0.252417,244.026,0.196275,244.026,0.266669,244.026,0.46717,244.026,0.882291,244.026,1.52807,
241.989,0.131959,241.989,0.194649,241.989,0.278632,241.989,0.2174,241.989,0.29456,241.989,0.521318,241.989,0.985515,241.989,1.71182,
239.951,0.140018,239.951,0.218763,239.951,0.309307,239.951,0.24217,239.951,0.32548,239.951,0.578575,239.951,1.09738,239.951,1.89724,
238.07,0.150164,238.07,0.243871,238.07,0.339081,238.07,0.268672,238.07,0.355868,238.07,0.634765,238.07,1.20452,238.07,2.05817,
236.032,0.157786,236.032,0.263279,236.032,0.360152,236.032,0.28991,236.032,0.378301,236.032,0.676034,236.032,1.28608,236.032,2.18167,
233.993,0.168134,233.993,0.28896,233.993,0.386557,233.993,0.316229,233.993,0.40672,233.993,0.72813,233.993,1.38618,233.993,2.35023,
231.954,0.179225,231.954,0.314099,231.954,0.415645,231.954,0.343111,231.954,0.436759,231.954,0.783804,231.954,1.49047,231.954,2.53032,
230.072,0.191468,230.072,0.339665,230.072,0.447506,230.072,0.369493,230.072,0.469325,230.072,0.843906,230.072,1.60674,230.072,2.68247,
228.032,0.206579,228.032,0.368802,228.032,0.489302,228.032,0.401902,228.032,0.511189,228.032,0.92305,228.032,1.75195,228.032,2.91155,
225.992,0.219001,225.992,0.395314,225.992,0.527708,225.992,0.427696,225.992,0.551943,225.992,0.997168,225.992,1.89083,225.992,3.06284,
223.952,0.242572,223.952,0.436664,223.952,0.595506,223.952,0.470939,223.952,0.620384,223.952,1.11683,223.952,2.10465,223.952,3.10046,
222.068,0.263929,222.068,0.473399,222.068,0.658823,222.068,0.50978,222.068,0.685464,222.068,1.23699,222.068,2.30599,222.068,3.15579,
220.027,0.300265,220.027,0.539736,220.027,0.790677,220.027,0.583055,220.027,0.809174,220.027,1.45459,220.027,2.60843,220.027,3.085,
217.985,0.364256,217.985,0.651625,217.985,1,217.985,0.698127,217.985,1.01688,217.985,1.83815,217.985,2.99947,217.985,3.26763,
215.943,0.445285,215.943,0.806495,215.943,1.28087,215.943,0.856634,215.943,1.29178,215.943,2.23762,215.943,2.93909,215.943,3.07195,
214.058,0.574289,214.058,1.04783,214.058,1.72671,214.058,1.11459,214.058,1.73845,214.058,2.77064,214.058,3.13696,214.058,3.18463,
212.016,0.709532,212.016,1.30484,212.016,2.14628,212.016,1.37195,212.016,2.17472,212.016,2.94255,212.016,3.21083,212.016,3.24963,
209.973,0.856724,209.973,1.57739,209.973,2.52601,209.973,1.66535,209.973,2.55164,209.973,3.00368,209.973,3.18612,209.973,3.23091,
207.93,0.963225,207.93,1.77292,207.93,2.65277,207.93,1.87921,207.93,2.75725,207.93,2.99511,207.93,3.22626,207.93,3.25694,
206.043,1.01007,206.043,1.85616,206.043,2.82881,206.043,1.96664,206.043,2.80826,206.043,3.12033,206.043,3.20488,206.043,3.18057,
203.999,1.03358,203.999,1.88663,203.999,2.81342,203.999,2.00352,203.999,2.80326,203.999,3.07673,203.999,3.17078,203.999,3.24731,
201.955,1.03418,201.955,1.8675,201.955,2.72072,201.955,1.98878,201.955,2.76657,201.955,3.01399,201.955,3.13524,201.955,3.18833,
200.068,1.03966,200.068,1.84216,200.068,2.62304,200.068,1.96068,200.068,2.66809,200.068,3.01273,200.068,3.11416,200.068,3.16683,

is_2_9_7uM,
is_2_9_7uM
Collection Time: 4/26/2024 12:48:03 PM
Operator Name  :
Scan Software Version: 3.00(339)
Parameter List :
Instrument                        Cary 50
Instrument Version                3.00
Start (nm)                        800.0
Stop (nm)                         200.0
X Mode                            Nanometers
Y Mode                            Abs
UV-Vis Scan Rate (nm/min)         300.00
UV-Vis Data Interval (nm)         0.50
UV-Vis Ave. Time (sec)            0.1000
Beam Mode                         Dual Beam
Baseline Correction               Off
Cycle Mode                        Off
Comments
Method Log     :
Method Name    :
Date/Time stamp: 4/20/2024 5:05:46 PM
Method Modifications:
UVVIS SAT Changed: 4/26/2024 12:45:06 PM, Old:0.0125, New:0.1000
Common SAT Changed: 4/26/2024 12:45:06 PM, Old:0.0125, New:0.1000
Common Interval nm Changed: 4/26/2024 12:45:07 PM, Old:     5.00, New:     0.50
End Method Modifications
<Current Wavelength> , 200.5

is_2_9_15uM1,
is_2_9_15uM1
Collection Time: 4/26/2024 12:51:53 PM
Operator Name  :
Scan Software Version: 3.00(339)
Parameter List :
Instrument                        Cary 50
Instrument Version                3.00
Start (nm)                        800.0
Stop (nm)                         200.0
X Mode                            Nanometers
Y Mode                            Abs
UV-Vis Scan Rate (nm/min)         300.00
UV-Vis Data Interval (nm)         0.50
UV-Vis Ave. Time (sec)            0.1000
Beam Mode                         Dual Beam
Baseline Correction               Off
Cycle Mode                        Off
Comments
Method Log     :
Method Name    :
Date/Time stamp: 4/20/2024 5:05:46 PM
Method Modifications:
UVVIS SAT Changed: 4/26/2024 12:45:06 PM, Old:0.0125, New:0.1000
Common SAT Changed: 4/26/2024 12:45:06 PM, Old:0.0125, New:0.1000
Common Interval nm Changed: 4/26/2024 12:45:07 PM, Old:     5.00, New:     0.50
End Method Modifications
<Current Wavelength> , 200.5

is_2_9_31uM2,
is_2_9_31uM2
Collection Time: 4/26/2024 12:55:03 PM
Operator Name  :
Scan Software Version: 3.00(339)
Parameter List :
Instrument                        Cary 50
Instrument Version                3.00
Start (nm)                        800.0
Stop (nm)                         200.0
X Mode                            Nanometers
Y Mode                            Abs
UV-Vis Scan Rate (nm/min)         300.00
UV-Vis Data Interval (nm)         0.50
UV-Vis Ave. Time (sec)            0.1000
Beam Mode                         Dual Beam
Baseline Correction               Off
Cycle Mode                        Off
Comments
Method Log     :
Method Name    :
Date/Time stamp: 4/20/2024 5:05:46 PM
Method Modifications:
UVVIS SAT Changed: 4/26/2024 12:45:06 PM, Old:0.0125, New:0.1000
Common SAT Changed: 4/26/2024 12:45:06 PM, Old:0.0125, New:0.1000
Common Interval nm Changed: 4/26/2024 12:45:07 PM, Old:     5.00, New:     0.50
End Method Modifications
<Current Wavelength> , 200.5

is_2_9_15uM,
is_2_9_15uM
Collection Time: 4/26/2024 1:00:44 PM
Operator Name  :
Scan Software Version: 3.00(339)
Parameter List :
Instrument                        Cary 50
Instrument Version                3.00
Start (nm)                        800.0
Stop (nm)                         200.0
X Mode                            Nanometers
Y Mode                            Abs
UV-Vis Scan Rate (nm/min)         300.00
UV-Vis Data Interval (nm)         0.50
UV-Vis Ave. Time (sec)            0.1000
Beam Mode                         Dual Beam
Baseline Correction               Off
Cycle Mode                        Off
Comments
Method Log     :
Method Name    :
Date/Time stamp: 4/20/2024 5:05:46 PM
Method Modifications:
UVVIS SAT Changed: 4/26/2024 12:45:06 PM, Old:0.0125, New:0.1000
Common SAT Changed: 4/26/2024 12:45:06 PM, Old:0.0125, New:0.1000
Common Interval nm Changed: 4/26/2024 12:45:07 PM, Old:     5.00, New:     0.50
End Method Modifications
<Current Wavelength> , 200.5

is_2_9_31uM,
is_2_9_31uM
Collection Time: 4/26/2024 1:11:44 PM
Operator Name  :
Scan Software Version: 3.00(339)
Parameter List :
Instrument                        Cary 50
Instrument Version                3.00
Start (nm)                        800.0
Stop (nm)                         200.0
X Mode                            Nanometers
Y Mode                            Abs
UV-Vis Scan Rate (nm/min)         300.00
UV-Vis Data Interval (nm)         0.50
UV-Vis Ave. Time (sec)            0.1000
Beam Mode                         Dual Beam
Baseline Correction               Off
Cycle Mode                        Off
Comments
Method Log     :
Method Name    :
Date/Time stamp: 4/20/2024 5:05:46 PM
Method Modifications:
UVVIS SAT Changed: 4/26/2024 12:45:06 PM, Old:0.0125, New:0.1000
Common SAT Changed: 4/26/2024 12:45:06 PM, Old:0.0125, New:0.1000
Common Interval nm Changed: 4/26/2024 12:45:07 PM, Old:     5.00, New:     0.50
End Method Modifications
<Current Wavelength> , 200.5

is_2_9_62uM,
is_2_9_62uM
Collection Time: 4/26/2024 1:18:35 PM
Operator Name  :
Scan Software Version: 3.00(339)
Parameter List :
Instrument                        Cary 50
Instrument Version                3.00
Start (nm)                        800.0
Stop (nm)                         200.0
X Mode                            Nanometers
Y Mode                            Abs
UV-Vis Scan Rate (nm/min)         300.00
UV-Vis Data Interval (nm)         0.50
UV-Vis Ave. Time (sec)            0.1000
Beam Mode                         Dual Beam
Baseline Correction               Off
Cycle Mode                        Off
Comments
Method Log     :
Method Name    :
Date/Time stamp: 4/20/2024 5:05:46 PM
Method Modifications:
UVVIS SAT Changed: 4/26/2024 12:45:06 PM, Old:0.0125, New:0.1000
Common SAT Changed: 4/26/2024 12:45:06 PM, Old:0.0125, New:0.1000
Common Interval nm Changed: 4/26/2024 12:45:07 PM, Old:     5.00, New:     0.50
End Method Modifications
<Current Wavelength> , 200.5

is_2_9_125uM,
is_2_9_125uM
Collection Time: 4/26/2024 1:21:57 PM
Operator Name  :
Scan Software Version: 3.00(339)
Parameter List :
Instrument                        Cary 50
Instrument Version                3.00
Start (nm)                        800.0
Stop (nm)                         200.0
X Mode                            Nanometers
Y Mode                            Abs
UV-Vis Scan Rate (nm/min)         300.00
UV-Vis Data Interval (nm)         0.50
UV-Vis Ave. Time (sec)            0.1000
Beam Mode                         Dual Beam
Baseline Correction               Off
Cycle Mode                        Off
Comments
Method Log     :
Method Name    :
Date/Time stamp: 4/20/2024 5:05:46 PM
Method Modifications:
UVVIS SAT Changed: 4/26/2024 12:45:06 PM, Old:0.0125, New:0.1000
Common SAT Changed: 4/26/2024 12:45:06 PM, Old:0.0125, New:0.1000
Common Interval nm Changed: 4/26/2024 12:45:07 PM, Old:     5.00, New:     0.50
End Method Modifications
<Current Wavelength> , 200.5

is_2_9_250uM,
is_2_9_250uM
Collection Time: 4/26/2024 1:27:57 PM
Operator Name  :
Scan Software Version: 3.00(339)
Parameter List :
Instrument                        Cary 50
Instrument Version                3.00
Start (nm)                        800.0
Stop (nm)                         200.0
X Mode                            Nanometers
Y Mode                            Abs
UV-Vis Scan Rate (nm/min)         300.00
UV-Vis Data Interval (nm)         0.50
UV-Vis Ave. Time (sec)            0.1000
Beam Mode                         Dual Beam
Baseline Correction               Off
Cycle Mode                        Off
Comments
Method Log     :
Method Name    :
Date/Time stamp: 4/20/2024 5:05:46 PM
Method Modifications:
UVVIS SAT Changed: 4/26/2024 12:45:06 PM, Old:0.0125, New:0.1000
Common SAT Changed: 4/26/2024 12:45:06 PM, Old:0.0125, New:0.1000
Common Interval nm Changed: 4/26/2024 12:45:07 PM, Old:     5.00, New:     0.50
End Method Modifications
<Current Wavelength> , 200.5