File: silicates_UV_vis/Allylsilicates_plot/is_2_8_allyl_acetate.csv
is_2_8_7uM,,is_2_8_15uM,,is_2_8_31uM,,is_2_8_62uM,,is_2_8_125uM1,,is_2_8_250uM,,
Wavelength (nm),Abs,Wavelength (nm),Abs,Wavelength (nm),Abs,Wavelength (nm),Abs,Wavelength (nm),Abs,Wavelength (nm),Abs,
799.953,-0.000657885,799.953,-0.00038553,799.953,-0.000108863,799.953,-0.000182509,799.953,0.00104462,799.953,0.00115255,
798.565,0.000574868,798.565,0.000485918,798.565,0.000583914,798.565,0.000138072,798.565,0.00190253,798.565,0.0025119,
797.037,-9.68124e-06,797.037,0.000244847,797.037,0.00045578,797.037,0.000805489,797.037,0.00155901,797.037,0.00154334,
795.509,-0.000122682,795.509,0.000298956,795.509,0.000319084,795.509,0.000111505,795.509,0.00140846,795.509,0.00207476,
793.979,-0.00086182,793.979,-0.00012527,793.979,-0.000479713,793.979,-0.000164397,793.979,0.00205211,793.979,0.00181142,
792.449,-0.000624955,792.449,0.000719319,792.449,-0.000815419,792.449,-0.000133655,792.449,0.00106426,792.449,0.00196798,
791.057,-0.00137439,791.057,-0.000607688,791.057,-0.00086368,791.057,-0.000477179,791.057,0.000896242,791.057,0.00138797,
789.524,-0.00138089,789.524,-0.00102176,789.524,-0.00109623,789.524,-0.00116816,789.524,0.000326778,789.524,0.00042738,
787.991,-0.00181376,787.991,-0.0015492,787.991,-0.00161935,787.991,-0.000913125,787.991,-1.2218e-05,787.991,0.000915982,
786.457,-0.00155611,786.457,-0.00118851,786.457,-0.00225177,786.457,-0.00197047,786.457,8.87721e-05,786.457,0.000270334,
785.062,-0.00155895,785.062,-0.00156406,785.062,-0.00181748,785.062,-0.001486,785.062,-0.000492744,785.062,0.000189268,
783.526,-0.00196835,783.526,-0.00166701,783.526,-0.00190485,783.526,-0.00133372,783.526,-0.00012791,783.526,0.00015959,
781.989,-0.00217734,781.989,-0.00180696,781.989,-0.00220876,781.989,-0.00168759,781.989,-0.000755988,781.989,3.85459e-05,
780.451,-0.00239009,780.451,-0.00174204,780.451,-0.00262635,780.451,-0.001593,780.451,-0.000703632,780.451,-0.000173091,
779.053,-0.00292451,779.053,-0.00209661,779.053,-0.00170574,779.053,-0.00167975,779.053,-0.00108291,779.053,-0.000341095,
777.513,-0.0018232,777.513,-0.00205313,777.513,-0.00265471,777.513,-0.00177726,777.513,-0.0014877,777.513,-0.000299346,
775.973,-0.0024459,775.973,-0.00213098,775.973,-0.00261267,775.973,-0.00257113,775.973,-0.00169868,775.973,-0.000678097,
774.432,-0.00254941,774.432,-0.00295331,774.432,-0.00230816,774.432,-0.00208203,774.432,-0.00176231,774.432,-0.000608618,
773.03,-0.00279326,773.03,-0.00267097,773.03,-0.00281296,773.03,-0.00260479,773.03,-0.00148332,773.03,-0.000828079,
771.487,-0.00341015,771.487,-0.00269618,771.487,-0.00280442,771.487,-0.00248404,771.487,-0.00145809,771.487,-0.000981366,
769.943,-0.00351508,769.943,-0.00313726,769.943,-0.00314162,769.943,-0.00326193,769.943,-0.00203798,769.943,-0.00135828,
768.539,-0.00352915,768.539,-0.00317318,768.539,-0.00293377,768.539,-0.00296277,768.539,-0.00194052,768.539,-0.00141067,
766.993,-0.00356931,766.993,-0.00306123,766.993,-0.00342166,766.993,-0.00299851,766.993,-0.0021065,766.993,-0.00173627,
765.447,-0.00376588,765.447,-0.00352047,765.447,-0.0035996,765.447,-0.00360884,765.447,-0.00237119,765.447,-0.00159965,
764.04,-0.00373277,764.04,-0.0035841,764.04,-0.0032906,764.04,-0.00363123,764.04,-0.0022923,764.04,-0.00199185,
762.492,-0.00434684,762.492,-0.00385153,762.492,-0.00410023,762.492,-0.00355919,762.492,-0.00256619,762.492,-0.00197047,
760.943,-0.00421992,760.943,-0.00382192,760.943,-0.00398385,760.943,-0.00366696,760.943,-0.00283477,760.943,-0.00238113,
759.534,-0.00495319,759.534,-0.00422935,759.534,-0.00440661,759.534,-0.00454906,759.534,-0.00315067,759.534,-0.00267508,
757.983,-0.00518715,757.983,-0.00478338,757.983,-0.00472234,757.983,-0.00445222,757.983,-0.00345802,757.983,-0.00290837,
756.432,-0.00490574,756.432,-0.00507592,756.432,-0.00485204,756.432,-0.00489187,756.432,-0.00397908,756.432,-0.00332194,
755.02,-0.00578221,755.02,-0.00531257,755.02,-0.00512289,755.02,-0.00496993,755.02,-0.00428338,755.02,-0.00364827,
753.467,-0.00579856,753.467,-0.00554597,753.467,-0.00553912,753.467,-0.00546132,753.467,-0.00475865,753.467,-0.00385081,
752.054,-0.00605743,752.054,-0.00604564,752.054,-0.0056234,752.054,-0.00558834,752.054,-0.00455792,752.054,-0.00388493,
750.499,-0.00627732,750.499,-0.00602057,750.499,-0.00618525,750.499,-0.00604819,750.499,-0.00504414,750.499,-0.00413639,
748.943,-0.00715123,748.943,-0.00666318,748.943,-0.00674026,748.943,-0.00623935,748.943,-0.0053746,748.943,-0.00469771,
747.528,-0.00691833,747.528,-0.00670856,747.528,-0.00660093,747.528,-0.00642502,747.528,-0.00551147,747.528,-0.00507182,
745.971,-0.0073051,745.971,-0.0068475,745.971,-0.00686911,745.971,-0.00704845,745.971,-0.00561804,745.971,-0.00508426,
744.554,-0.00772688,744.554,-0.00734084,744.554,-0.00743449,744.554,-0.00682421,744.554,-0.0060268,744.554,-0.00540768,
742.995,-0.00789971,742.995,-0.00768685,742.995,-0.00733626,742.995,-0.00738131,742.995,-0.00620695,742.995,-0.00612763,
741.435,-0.00901764,741.435,-0.00828876,741.435,-0.00829094,741.435,-0.00808356,741.435,-0.00743933,741.435,-0.00686203,
740.016,-0.00924785,740.016,-0.00894583,740.016,-0.00867315,740.016,-0.00891058,740.016,-0.0077846,740.016,-0.0069646,
738.454,-0.00920456,738.454,-0.00876261,738.454,-0.00841166,738.454,-0.00847574,738.454,-0.00739154,738.454,-0.00721779,
737.034,-0.00971913,737.034,-0.00960986,737.034,-0.00931494,737.034,-0.00931459,737.034,-0.00856128,737.034,-0.00777285,
735.47,-0.00969958,735.47,-0.00938183,735.47,-0.00907463,735.47,-0.00890333,735.47,-0.00837266,735.47,-0.00781592,
734.048,-0.00948634,734.048,-0.00936115,734.048,-0.00894705,734.048,-0.00862742,734.048,-0.00807212,734.048,-0.00768934,
732.483,-0.0094216,732.483,-0.00911732,732.483,-0.00909821,732.483,-0.00859108,732.483,-0.00793962,732.483,-0.00741067,
731.06,-0.00992103,731.06,-0.00947073,731.06,-0.00934717,731.06,-0.00908508,731.06,-0.0084596,731.06,-0.00803899,
729.493,-0.0105715,729.493,-0.010448,729.493,-0.010068,729.493,-0.00990008,729.493,-0.00909081,729.493,-0.00891636,
728.068,-0.0113737,728.068,-0.0112048,728.068,-0.011144,728.068,-0.0108618,728.068,-0.0100443,728.068,-0.0093954,
726.5,-0.012567,726.5,-0.012386,726.5,-0.0123662,726.5,-0.012013,726.5,-0.011032,726.5,-0.0106389,
724.931,-0.0136151,724.931,-0.0133162,724.931,-0.0132955,724.931,-0.0131992,724.931,-0.0122577,724.931,-0.0120645,
723.504,-0.014419,723.504,-0.0141623,723.504,-0.0140402,723.504,-0.0137138,723.504,-0.012794,723.504,-0.0126042,
721.933,-0.0150061,721.933,-0.0146688,721.933,-0.0147565,721.933,-0.0143019,721.933,-0.0137579,721.933,-0.0131211,
720.505,-0.0155847,720.505,-0.0152086,720.505,-0.0152091,720.505,-0.0147172,720.505,-0.0139518,720.505,-0.0135354,
718.932,-0.0153286,718.932,-0.0152039,718.932,-0.0149901,718.932,-0.014733,718.932,-0.0140279,718.932,-0.013644,
717.502,-0.0154635,717.502,-0.0151868,717.502,-0.0153145,717.502,-0.0147601,717.502,-0.0141045,717.502,-0.0136242,
715.928,-0.0148991,715.928,-0.0147771,715.928,-0.0148067,715.928,-0.0144433,715.928,-0.0136168,715.928,-0.0130579,
714.497,-0.0142318,714.497,-0.0140632,714.497,-0.0142734,714.497,-0.0136948,714.497,-0.0132998,714.497,-0.0123893,
713.065,-0.0127795,713.065,-0.0135826,713.065,-0.0133912,713.065,-0.0131325,713.065,-0.0123184,713.065,-0.0118759,
711.488,-0.0117626,711.488,-0.0125808,711.488,-0.0125654,711.488,-0.0121172,711.488,-0.011149,711.488,-0.0106029,
710.055,-0.0101944,710.055,-0.0110566,710.055,-0.010915,710.055,-0.0108847,710.055,-0.00976266,710.055,-0.0091086,
708.477,-0.00879152,708.477,-0.00921875,708.477,-0.00945944,708.477,-0.00928347,708.477,-0.00828322,708.477,-0.0075437,
707.042,-0.00712903,707.042,-0.00768258,707.042,-0.00769285,707.042,-0.00752009,707.042,-0.00669612,707.042,-0.00607173,
705.463,-0.00482009,705.463,-0.00528004,705.463,-0.00552205,705.463,-0.00514842,705.463,-0.0044618,705.463,-0.00362045,
704.026,-0.00312266,704.026,-0.00357906,704.026,-0.00369571,704.026,-0.00325099,704.026,-0.00228144,704.026,-0.00184434,
702.445,-0.00124999,702.445,-0.00179721,702.445,-0.00194686,702.445,-0.00121071,702.445,-0.000480695,702.445,5.27588e-05,
701.007,0.00067545,701.007,0.000468893,701.007,0.000345586,701.007,0.000801859,701.007,0.00158504,701.007,0.00237377,
699.569,0.00225705,699.569,0.0021283,699.569,0.00203318,699.569,0.00246509,699.569,0.00360737,699.569,0.00409857,
697.985,0.00404362,697.985,0.00419025,697.985,0.00401841,697.985,0.00443276,697.985,0.00519976,697.985,0.00609289,
696.545,0.00596984,696.545,0.00614107,696.545,0.00596381,696.545,0.00671608,696.545,0.00692611,696.545,0.00747211,
694.961,0.00719839,694.961,0.00782723,694.961,0.00730587,694.961,0.00808771,694.961,0.00889642,694.961,0.00953706,
693.519,0.00869798,693.519,0.00921814,693.519,0.0091476,693.519,0.00956225,693.519,0.010485,693.519,0.0107305,
691.933,0.0107385,691.933,0.0104804,691.933,0.0107666,691.933,0.0114824,691.933,0.0121696,691.933,0.012568,
690.49,0.0115868,690.49,0.0117178,690.49,0.0116351,690.49,0.0126038,690.49,0.0132067,690.49,0.0135368,
689.046,0.0127964,689.046,0.012972,689.046,0.0126991,689.046,0.0134769,689.046,0.0140451,689.046,0.014478,
687.458,0.0136002,687.458,0.013677,687.458,0.0143407,687.458,0.0145267,687.458,0.0150021,687.458,0.0154705,
686.013,0.0147845,686.013,0.0152732,686.013,0.0155352,686.013,0.0162072,686.013,0.0162812,686.013,0.0170542,
684.567,0.0149909,684.567,0.0153614,684.567,0.0155071,684.567,0.0164306,684.567,0.0165855,684.567,0.0170439,
682.976,0.0155101,682.976,0.0157379,682.976,0.016197,682.976,0.0172012,682.976,0.0169987,682.976,0.0175805,
681.53,0.0160848,681.53,0.0165128,681.53,0.016671,681.53,0.0181369,681.53,0.0179235,681.53,0.0183097,
679.937,0.0166819,679.937,0.0170663,679.937,0.0172767,679.937,0.0187796,679.937,0.0184347,679.937,0.0188888,
678.489,0.0173505,678.489,0.0173021,678.489,0.0175236,678.489,0.0193584,678.489,0.0185998,678.489,0.0192369,
677.04,0.0172395,677.04,0.0176554,677.04,0.0177979,677.04,0.0198345,677.04,0.0192749,677.04,0.0197891,
675.445,0.0176341,675.445,0.0177881,675.445,0.0180835,675.445,0.0204236,675.445,0.0196152,675.445,0.0199125,
673.995,0.0177044,673.995,0.0183155,673.995,0.0181924,673.995,0.0206657,673.995,0.0197305,673.995,0.0199738,
672.544,0.0180332,672.544,0.0186037,672.544,0.018547,672.544,0.0209376,672.544,0.0200181,672.544,0.0202462,
670.947,0.0181705,670.947,0.0185618,670.947,0.0187964,670.947,0.0210639,670.947,0.0199603,670.947,0.0204368,
669.495,0.0191225,669.495,0.0194783,669.495,0.0191561,669.495,0.0219572,669.495,0.0207675,669.495,0.021345,
668.042,0.018178,668.042,0.018553,668.042,0.0181254,668.042,0.0210206,668.042,0.0201569,668.042,0.0203097,
666.443,0.0169811,666.443,0.0175441,666.443,0.017618,666.443,0.0199535,666.443,0.0189031,666.443,0.019538,
664.988,0.0162352,664.988,0.0168613,664.988,0.0167715,664.988,0.0196916,664.988,0.0181741,664.988,0.0187914,
663.533,0.0164018,663.533,0.0167615,663.533,0.0165068,663.533,0.0188783,663.533,0.0179962,663.533,0.0184595,
661.932,0.015838,661.932,0.0161055,661.932,0.0161933,661.932,0.0186427,661.932,0.0177258,661.932,0.01792,
660.476,0.0157144,660.476,0.0159848,660.476,0.0160434,660.476,0.0183999,660.476,0.0173241,660.476,0.0182885,
659.019,0.0156857,659.019,0.0159077,659.019,0.0159619,659.019,0.0185247,659.019,0.0169519,659.019,0.0180564,
657.561,0.0157182,657.561,0.0157458,657.561,0.0158645,657.561,0.0182825,657.561,0.0171965,657.561,0.0176974,
655.957,0.0154297,655.957,0.0155294,655.957,0.0161225,655.957,0.0182296,655.957,0.0173242,655.957,0.0179533,
654.498,0.015595,654.498,0.0157009,654.498,0.015775,654.498,0.0177919,654.498,0.0170103,654.498,0.0176295,
653.039,0.0153388,653.039,0.0155182,653.039,0.0155429,653.039,0.0176791,653.039,0.0168572,653.039,0.0173387,
651.433,0.0155317,651.433,0.0160601,651.433,0.0155724,651.433,0.0176394,651.433,0.017265,651.433,0.0177328,
649.972,0.015557,649.972,0.0167735,649.972,0.0165797,649.972,0.0179127,649.972,0.0177647,649.972,0.018257,
648.51,0.0151474,648.51,0.0159734,648.51,0.0156768,648.51,0.0172543,648.51,0.0170369,648.51,0.0178381,
647.048,0.0152676,647.048,0.0158148,647.048,0.0154626,647.048,0.0171959,647.048,0.0170198,647.048,0.0177684,
645.439,0.0152872,645.439,0.0158083,645.439,0.0154331,645.439,0.0171288,645.439,0.0168788,645.439,0.0173461,
643.976,0.0157266,643.976,0.0163866,643.976,0.0158642,643.976,0.0177633,643.976,0.0174804,643.976,0.0181863,
642.512,0.0151521,642.512,0.0155919,642.512,0.0152702,642.512,0.0170262,642.512,0.0169995,642.512,0.0179198,
641.047,0.0155079,641.047,0.0161783,641.047,0.0155047,641.047,0.0166827,641.047,0.0168221,641.047,0.0177495,
639.435,0.0151267,639.435,0.0157742,639.435,0.0155131,639.435,0.0165084,639.435,0.016976,639.435,0.0178187,
637.969,0.0153197,637.969,0.0160809,637.969,0.0153922,637.969,0.0167518,637.969,0.0167939,637.969,0.0178225,
636.503,0.0152686,636.503,0.0157517,636.503,0.015478,636.503,0.0165625,636.503,0.0170782,636.503,0.0178994,
635.035,0.0154609,635.035,0.015621,635.035,0.0154176,635.035,0.0163504,635.035,0.0168146,635.035,0.0176746,
633.568,0.0156019,633.568,0.0156286,633.568,0.01566,633.568,0.0164467,633.568,0.0171128,633.568,0.0178532,
631.952,0.0153362,631.952,0.0157846,631.952,0.015422,631.952,0.0160639,631.952,0.0169126,631.952,0.0178723,
630.483,0.0156531,630.483,0.0155369,630.483,0.0153919,630.483,0.0163012,630.483,0.0169652,630.483,0.0179191,
629.013,0.0154208,629.013,0.0155692,629.013,0.0155635,629.013,0.0161593,629.013,0.0168748,629.013,0.0179992,
627.543,0.0156307,627.543,0.0158546,627.543,0.0158311,627.543,0.0161272,627.543,0.017035,627.543,0.0180846,
626.072,0.0156927,626.072,0.0159109,626.072,0.0158484,626.072,0.0159968,626.072,0.0173183,626.072,0.0181888,
624.454,0.0156724,624.454,0.0159757,624.454,0.0160892,624.454,0.0160399,624.454,0.0171216,624.454,0.018288,
622.981,0.0158674,622.981,0.0159347,622.981,0.0159325,622.981,0.0161661,622.981,0.0174684,622.981,0.0183339,
621.509,0.015598,621.509,0.0159984,621.509,0.0158641,621.509,0.0157606,621.509,0.0173865,621.509,0.0183371,
620.035,0.0157232,620.035,0.0159716,620.035,0.0159511,620.035,0.0161596,620.035,0.0170855,620.035,0.0182705,
618.561,0.0154861,618.561,0.0160067,618.561,0.015691,618.561,0.0158882,618.561,0.0171313,618.561,0.0181701,
616.939,0.0157177,616.939,0.015587,616.939,0.0155671,616.939,0.0161436,616.939,0.0169079,616.939,0.0180424,
615.464,0.0154233,615.464,0.0155848,615.464,0.0155245,615.464,0.0159458,615.464,0.0170413,615.464,0.017971,
613.988,0.0151958,613.988,0.0155438,613.988,0.0154899,613.988,0.0156091,613.988,0.0170338,613.988,0.0179028,
612.512,0.0150892,612.512,0.0154697,612.512,0.0153313,612.512,0.0156626,612.512,0.016649,612.512,0.0175928,
611.035,0.0151025,611.035,0.0153482,611.035,0.015358,611.035,0.0156107,611.035,0.0166725,611.035,0.0174921,
609.557,0.0150094,609.557,0.0151835,609.557,0.015379,609.557,0.015687,609.557,0.0167738,609.557,0.0176684,
607.931,0.0150888,607.931,0.0153435,607.931,0.0151918,607.931,0.0155307,607.931,0.0165099,607.931,0.0173006,
606.453,0.0147593,606.453,0.0151002,606.453,0.015173,606.453,0.0152775,606.453,0.0166495,606.453,0.017472,
604.973,0.0148373,604.973,0.0149907,604.973,0.0150684,604.973,0.0155389,604.973,0.0163815,604.973,0.0173366,
603.493,0.0149575,603.493,0.0150507,603.493,0.0150829,603.493,0.0154589,603.493,0.0165799,603.493,0.0173993,
602.013,0.0146245,602.013,0.0150555,602.013,0.0148377,602.013,0.0153906,602.013,0.0163928,602.013,0.0172367,
600.531,0.0146555,600.531,0.0147283,600.531,0.0147789,600.531,0.0152028,600.531,0.0162419,600.531,0.0170513,
599.05,0.0147221,599.05,0.014638,599.05,0.01467,599.05,0.0152153,599.05,0.0161304,599.05,0.0170378,
597.568,0.0141031,597.568,0.0144572,597.568,0.0145964,597.568,0.0153544,597.568,0.0159504,597.568,0.016682,
595.936,0.0141291,595.936,0.0145537,595.936,0.014364,595.936,0.0151402,595.936,0.0160059,595.936,0.0168582,
594.453,0.0141726,594.453,0.0144409,594.453,0.0143309,594.453,0.0151156,594.453,0.0159175,594.453,0.0167041,
592.969,0.014126,592.969,0.0143908,592.969,0.0144339,592.969,0.0150232,592.969,0.015701,592.969,0.0165059,
591.484,0.0140596,591.484,0.0140884,591.484,0.0142508,591.484,0.0148492,591.484,0.0155025,591.484,0.0163946,
589.999,0.0139626,589.999,0.0142663,589.999,0.0139602,589.999,0.014646,589.999,0.0156155,589.999,0.0161476,
588.513,0.013855,588.513,0.0139587,588.513,0.0137749,588.513,0.0145499,588.513,0.0155416,588.513,0.0160328,
587.027,0.013586,587.027,0.0139942,587.027,0.0137915,587.027,0.0141645,587.027,0.0152165,587.027,0.0159339,
585.54,0.0135851,585.54,0.0134726,585.54,0.0135851,585.54,0.0141315,585.54,0.0147753,585.54,0.0155981,
584.052,0.013138,584.052,0.013518,584.052,0.0134093,584.052,0.0138132,584.052,0.014888,584.052,0.0155382,
582.564,0.0131489,582.564,0.0132016,582.564,0.0131977,582.564,0.0135994,582.564,0.0147333,582.564,0.0152297,
580.927,0.012845,580.927,0.0131598,580.927,0.0131214,580.927,0.0133752,580.927,0.0143948,580.927,0.0152304,
579.438,0.0125386,579.438,0.0128974,579.438,0.0126473,579.438,0.0129085,579.438,0.0141714,579.438,0.0148378,
577.948,0.0122898,577.948,0.0125156,577.948,0.0126093,577.948,0.0127277,577.948,0.0138697,577.948,0.0145824,
576.458,0.0119071,576.458,0.0121791,576.458,0.0121917,576.458,0.0124203,576.458,0.0136475,576.458,0.0144871,
574.967,0.01167861,574.967,0.011971,574.967,0.0119973,574.967,0.0122369,574.967,0.0133748,574.967,0.0141043,
573.475,0.0112874,573.475,0.0115014,573.475,0.0115961,573.475,0.0119335,573.475,0.0130908,573.475,0.0139007,
571.983,0.011053,571.983,0.0113852,571.983,0.0113209,571.983,0.0116779,571.983,0.012865,571.983,0.0135281,
570.491,0.0107823,570.491,0.0112716,570.491,0.0110498,570.491,0.0113592,570.491,0.0124929,570.491,0.0133078,
568.998,0.010391,568.998,0.0106425,568.998,0.0108654,568.998,0.0109316,568.998,0.0119814,568.998,0.0128638,
567.504,0.0100017,567.504,0.0103573,567.504,0.0103757,567.504,0.0107021,567.504,0.0118228,567.504,0.0124022,
566.01,0.00963958,566.01,0.0101362,566.01,0.00996403,566.01,0.0102368,566.01,0.011438,566.01,0.0121919,
564.515,0.00925212,564.515,0.00958146,564.515,0.00943028,564.515,0.00985952,564.515,0.0108692,564.515,0.0118159,
563.02,0.00885961,563.02,0.00934481,563.02,0.00919757,563.02,0.00933458,563.02,0.0105142,563.02,0.0114162,
561.524,0.00849903,561.524,0.00884389,561.524,0.00869315,561.524,0.00915669,561.524,0.0101214,561.524,0.0109994,
560.028,0.00813804,560.028,0.00834052,560.028,0.0083977,560.028,0.00851769,560.028,0.00974623,560.028,0.0105331,
558.531,0.00759499,558.531,0.00786627,558.531,0.00803632,558.531,0.00820427,558.531,0.00928893,558.531,0.0103872,
557.033,0.00718031,557.033,0.00745289,557.033,0.00754517,557.033,0.00773141,557.033,0.00888064,557.033,0.00992446,
555.535,0.00674577,555.535,0.00712855,555.535,0.00724948,555.535,0.00730684,555.535,0.00840855,555.535,0.00936433,
554.037,0.00623609,554.037,0.00643435,554.037,0.00657958,554.037,0.0067542,554.037,0.00801694,554.037,0.00890912,
552.538,0.00578706,552.538,0.00617189,552.538,0.00623192,552.538,0.00646181,552.538,0.00755136,552.538,0.00884519,
551.038,0.00540743,551.038,0.00568172,551.038,0.00572505,551.038,0.00598538,551.038,0.0070905,551.038,0.00828751,
549.538,0.00498999,549.538,0.00523992,549.538,0.00531688,549.538,0.00566331,549.538,0.00676459,549.538,0.00784985,
548.038,0.00459208,548.038,0.00485084,548.038,0.00476229,548.038,0.00498667,548.038,0.00620981,548.038,0.00737787,
546.536,0.00411396,546.536,0.00453775,546.536,0.00446349,546.536,0.00476441,546.536,0.00600325,546.536,0.00706753,
545.035,0.00390216,545.035,0.00417679,545.035,0.00440507,545.035,0.00451374,545.035,0.00560586,545.035,0.00689812,
543.533,0.00364407,543.533,0.00401977,543.533,0.00406251,543.533,0.00422222,543.533,0.00540014,543.533,0.00662187,
542.03,0.00357798,542.03,0.00408898,542.03,0.00403996,542.03,0.00416302,542.03,0.0051941,542.03,0.00671256,
540.527,0.00360027,540.527,0.00399035,540.527,0.00415491,540.527,0.00427939,540.527,0.0052815,540.527,0.00671853,
539.023,0.00360022,539.023,0.00393097,539.023,0.00386408,539.023,0.00420852,539.023,0.005159,539.023,0.00657246,
537.518,0.00378487,537.518,0.00414083,537.518,0.0041517,537.518,0.0044834,537.518,0.0054707,537.518,0.00687863,
536.014,0.00417878,536.014,0.00453984,536.014,0.00472647,536.014,0.00491723,536.014,0.00597948,536.014,0.00744275,
534.508,0.00471767,534.508,0.00496339,534.508,0.00502322,534.508,0.00524173,534.508,0.00636277,534.508,0.00784162,
533.003,0.00544412,533.003,0.00574252,533.003,0.005775,533.003,0.00599244,533.003,0.00723106,533.003,0.0086055,
531.496,0.00615223,531.496,0.00647213,531.496,0.00646063,531.496,0.00669503,531.496,0.00787663,531.496,0.00935587,
529.989,0.00695296,529.989,0.00730513,529.989,0.00736431,529.989,0.00766485,529.989,0.00876919,529.989,0.0104332,
528.482,0.00805686,528.482,0.00846076,528.482,0.00839008,528.482,0.00884379,528.482,0.00992417,528.482,0.0113012,
526.974,0.0093866,526.974,0.00958768,526.974,0.00976357,526.974,0.00999473,526.974,0.0110797,526.974,0.0127321,
525.466,0.0107864,525.466,0.0110356,525.466,0.0110316,525.466,0.0113038,525.466,0.0126916,525.466,0.014007,
523.957,0.0122847,523.957,0.0124361,523.957,0.0125696,523.957,0.0126608,523.957,0.0139504,523.957,0.0154401,
522.447,0.0138151,522.447,0.0137478,522.447,0.0138422,522.447,0.0141597,522.447,0.0153044,522.447,0.0166327,
520.937,0.0150075,520.937,0.0150492,520.937,0.0151218,520.937,0.0154219,520.937,0.0167564,520.937,0.0179486,
519.427,0.0161014,519.427,0.0161692,519.427,0.016297,519.427,0.0166265,519.427,0.0177184,519.427,0.0190213,
518.067,0.0173908,518.067,0.0176372,518.067,0.017746,518.067,0.0179267,518.067,0.0193315,518.067,0.020445,
516.556,0.0189024,516.556,0.0189913,516.556,0.019122,516.556,0.0193385,516.556,0.0205744,516.556,0.0218924,
515.044,0.0197049,515.044,0.0199432,515.044,0.0203496,515.044,0.0203704,515.044,0.0214247,515.044,0.0228759,
513.532,0.0206375,513.532,0.0209362,513.532,0.0212094,513.532,0.0212374,513.532,0.0225074,513.532,0.0237221,
512.019,0.0217713,512.019,0.0220934,512.019,0.0223616,512.019,0.0226147,512.019,0.0239226,512.019,0.0249696,
510.505,0.0227629,510.505,0.0231591,510.505,0.0230581,510.505,0.0232854,510.505,0.0247775,510.505,0.0260013,
508.992,0.023488,508.992,0.0237851,508.992,0.0238329,508.992,0.0244128,508.992,0.0253969,508.992,0.0264729,
507.477,0.0241981,507.477,0.02440398,507.477,0.024462,507.477,0.0248813,507.477,0.0261084,507.477,0.0272233,
505.962,0.0246089,505.962,0.0253493,505.962,0.0251391,505.962,0.0256475,505.962,0.0268205,505.962,0.0279019,
504.447,0.0252119,504.447,0.0254227,504.447,0.025727,504.447,0.0260211,504.447,0.0271743,504.447,0.0283264,
502.931,0.0257306,502.931,0.0259231,502.931,0.0262354,502.931,0.0263198,502.931,0.0276838,502.931,0.0285747,
501.567,0.0258163,501.567,0.0261661,501.567,0.0261571,501.567,0.026617,501.567,0.0277623,501.567,0.0287012,
500.05,0.0258876,500.05,0.026667,500.05,0.0264137,500.05,0.0267401,500.05,0.0281186,500.05,0.0289246,
498.533,0.0260053,498.533,0.0264181,498.533,0.0264017,498.533,0.0266799,498.533,0.0282331,498.533,0.0291951,
497.015,0.026437,497.015,0.0266314,497.015,0.0263402,497.015,0.0267241,497.015,0.0280894,497.015,0.0290658,
495.497,0.0260492,495.497,0.0264094,495.497,0.0264893,495.497,0.0268996,495.497,0.0281098,495.497,0.0290606,
493.978,0.0257471,493.978,0.026264,493.978,0.0259413,493.978,0.0263237,493.978,0.0275171,493.978,0.028913,
492.459,0.0255593,492.459,0.0258539,492.459,0.025841,492.459,0.0261932,492.459,0.0275166,492.459,0.0286564,
490.94,0.0255712,490.94,0.0258014,490.94,0.0259177,490.94,0.0261388,490.94,0.027461,490.94,0.0286122,
489.572,0.0249961,489.572,0.0252672,489.572,0.0251773,489.572,0.0255369,489.572,0.0268002,489.572,0.0282037,
488.051,0.0244985,488.051,0.0247122,488.051,0.0249439,488.051,0.0251085,488.051,0.0265425,488.051,0.0277208,
486.53,0.0244363,486.53,0.0246228,486.53,0.0245688,486.53,0.0247845,486.53,0.026471,486.53,0.0274633,
485.009,0.0236061,485.009,0.023931,485.009,0.0239921,485.009,0.0244382,485.009,0.0257168,485.009,0.0268281,
483.487,0.023411,483.487,0.023951,483.487,0.0238454,483.487,0.0241079,483.487,0.0253715,483.487,0.0264559,
481.965,0.0229861,481.965,0.0234567,481.965,0.0234523,481.965,0.0237381,481.965,0.0250959,481.965,0.0263128,
480.442,0.0224975,480.442,0.0227919,480.442,0.0228326,480.442,0.0232308,480.442,0.0243396,480.442,0.025696,
479.071,0.0222194,479.071,0.0225897,479.071,0.0227737,479.071,0.0231642,479.071,0.0242825,479.071,0.0255708,
477.547,0.0220157,477.547,0.0225029,477.547,0.0224102,477.547,0.0230999,477.547,0.0241287,477.547,0.0253099,
476.023,0.0222566,476.023,0.0227864,476.023,0.0226187,476.023,0.0232116,476.023,0.0242608,476.023,0.0255284,
474.499,0.0228507,474.499,0.0231804,474.499,0.0230177,474.499,0.0238064,474.499,0.024691,474.499,0.026191,
472.973,0.0235317,472.973,0.0237471,472.973,0.0236668,472.973,0.0246688,472.973,0.025466,472.973,0.0268554,
471.448,0.0239805,471.448,0.0242959,471.448,0.0246762,471.448,0.02523,471.448,0.0261266,471.448,0.0278034,
470.075,0.0249829,470.075,0.025461,470.075,0.0254631,470.075,0.0261775,470.075,0.0272302,470.075,0.0285891,
468.548,0.0263182,468.548,0.0266111,468.548,0.0263016,468.548,0.0272808,468.548,0.0283264,468.548,0.0295695,
467.021,0.0277426,467.021,0.0280694,467.021,0.0279171,467.021,0.0286319,467.021,0.0296764,467.021,0.0311987,
465.494,0.0288147,465.494,0.0291897,465.494,0.0291663,465.494,0.0300353,465.494,0.0310404,465.494,0.0323977,
463.966,0.0303643,463.966,0.0305225,463.966,0.0303017,463.966,0.0312751,463.966,0.0323448,463.966,0.033776,
462.438,0.0314126,462.438,0.031702,462.438,0.0312527,462.438,0.0323225,462.438,0.0333388,462.438,0.0349204,
461.062,0.0319994,461.062,0.0323248,461.062,0.0322952,461.062,0.0331351,461.062,0.0343514,461.062,0.035491,
459.533,0.0335675,459.533,0.0338204,459.533,0.0336079,459.533,0.0343393,459.533,0.0356561,459.533,0.0371397,
458.004,0.0342739,458.004,0.0346443,458.004,0.0344391,458.004,0.0352793,458.004,0.0364841,458.004,0.0378026,
456.474,0.0349659,456.474,0.0351739,456.474,0.0351217,456.474,0.0357835,456.474,0.0371507,456.474,0.0384999,
454.944,0.0358178,454.944,0.0358284,454.944,0.0359268,454.944,0.0365622,454.944,0.0378011,454.944,0.0392969,
453.566,0.0360396,453.566,0.0365527,453.566,0.0361861,453.566,0.0368418,453.566,0.0381918,453.566,0.0395715,
452.035,0.0367273,452.035,0.0373267,452.035,0.0368739,452.035,0.0375247,452.035,0.038933,452.035,0.0405815,
450.503,0.0371548,450.503,0.0373196,450.503,0.0371692,450.503,0.0376961,450.503,0.0390883,450.503,0.0406545,
448.971,0.0372337,448.971,0.037697,448.971,0.0374839,448.971,0.037902,448.971,0.0393735,448.971,0.040985,
447.439,0.0375957,447.439,0.0379834,447.439,0.0378021,447.439,0.0383573,447.439,0.0398517,447.439,0.0413997,
446.059,0.0380346,446.059,0.0383932,446.059,0.0382417,446.059,0.0388661,446.059,0.0403357,446.059,0.0418972,
444.526,0.0382014,444.526,0.0387884,444.526,0.0382549,444.526,0.0391792,444.526,0.0405244,444.526,0.0417372,
442.992,0.0382555,442.992,0.0385148,442.992,0.0383805,442.992,0.0392532,442.992,0.0403275,442.992,0.0422408,
441.458,0.0381716,441.458,0.0386073,441.458,0.038528,441.458,0.0391301,441.458,0.0407176,441.458,0.0421504,
439.923,0.0383878,439.923,0.0386807,439.923,0.038818,439.923,0.0393989,439.923,0.0407401,439.923,0.0421518,
438.542,0.0384581,438.542,0.0386693,438.542,0.0386869,438.542,0.0392912,438.542,0.0406942,438.542,0.0423652,
437.007,0.0381548,437.007,0.0385173,437.007,0.038283,437.007,0.0390481,437.007,0.0404252,437.007,0.0420216,
435.471,0.0381031,435.471,0.0380833,435.471,0.0381538,435.471,0.038797,435.471,0.040195,435.471,0.0418768,
433.935,0.0377988,433.935,0.0379677,433.935,0.0378751,433.935,0.0386644,433.935,0.0400768,433.935,0.0417329,
432.552,0.0375685,432.552,0.0381202,432.552,0.0377701,432.552,0.0383866,432.552,0.039855,432.552,0.0414676,
431.015,0.0375085,431.015,0.0378904,431.015,0.037547,431.015,0.0383377,431.015,0.0396015,431.015,0.041505,
429.477,0.0372481,429.477,0.0377791,429.477,0.0375042,429.477,0.0381047,429.477,0.0398893,429.477,0.0414464,
427.939,0.0371264,427.939,0.0374303,427.939,0.0373315,427.939,0.0379151,427.939,0.0397222,427.939,0.0413594,
426.555,0.0369257,426.555,0.0371721,426.555,0.036998,426.555,0.0378944,426.555,0.039192,426.555,0.0412189,
425.016,0.0364024,425.016,0.036881,425.016,0.0368624,425.016,0.037719,425.016,0.0390875,425.016,0.0411895,
423.477,0.0368828,423.477,0.0369041,423.477,0.036987,423.477,0.0378099,423.477,0.0392093,423.477,0.0408029,
421.938,0.0367853,421.938,0.0368081,421.938,0.0369632,421.938,0.0377384,421.938,0.0392451,421.938,0.0410344,
420.552,0.0365451,420.552,0.0367133,420.552,0.0365156,420.552,0.037529,420.552,0.0388409,420.552,0.0411048,
419.012,0.035979,419.012,0.0364119,419.012,0.0365596,419.012,0.0373298,419.012,0.0390674,419.012,0.0407788,
417.471,0.0359634,417.471,0.036161,417.471,0.0360903,417.471,0.0370954,417.471,0.0387184,417.471,0.04058,
415.93,0.0355718,415.93,0.0357386,415.93,0.036078,415.93,0.0368305,415.93,0.0385233,415.93,0.0402058,
414.543,0.0351871,414.543,0.0358083,414.543,0.0356691,414.543,0.0364313,414.543,0.038158,414.543,0.0400552,
413.001,0.0349914,413.001,0.035149,413.001,0.0353401,413.001,0.0359829,413.001,0.0376824,413.001,0.0396837,
411.459,0.0346078,411.459,0.034712,411.459,0.0350069,411.459,0.0358418,411.459,0.0375458,411.459,0.039264,
410.071,0.0344175,410.071,0.0347061,410.071,0.0346305,410.071,0.0353512,410.071,0.0371825,410.071,0.0391885,
408.528,0.0339297,408.528,0.0342531,408.528,0.0342887,408.528,0.03489317,408.528,0.0367837,408.528,0.0386969,
406.985,0.0332404,406.985,0.0334469,406.985,0.0337369,406.985,0.0345099,406.985,0.0363834,406.985,0.0385001,
405.441,0.0327261,405.441,0.0330865,405.441,0.0333202,405.441,0.0339142,405.441,0.0358053,405.441,0.0380561,
404.051,0.0323504,404.051,0.0326385,404.051,0.033,404.051,0.0335191,404.051,0.0354993,404.051,0.0375026,
402.507,0.0321543,402.507,0.0322422,402.507,0.032266,402.507,0.0330703,402.507,0.0351031,402.507,0.037188,
400.962,0.0312257,400.962,0.03194,400.962,0.0317394,400.962,0.0327668,400.962,0.0347281,400.962,0.0365399,
399.571,0.0310281,399.571,0.031451,399.571,0.0314868,399.571,0.0325482,399.571,0.0346057,399.571,0.0363029,
398.026,0.0306541,398.026,0.030865,398.026,0.0311032,398.026,0.0319491,398.026,0.0338114,398.026,0.0360099,
396.48,0.030292,396.48,0.0307251,396.48,0.03071,396.48,0.0318045,396.48,0.0338299,396.48,0.0357721,
394.933,0.0301869,394.933,0.0304293,394.933,0.0307068,394.933,0.0316315,394.933,0.0334464,394.933,0.035513,
393.541,0.0301331,393.541,0.0301797,393.541,0.0306404,393.541,0.0315233,393.541,0.0333651,393.541,0.035629,
391.994,0.0297589,391.994,0.0304848,391.994,0.0306183,391.994,0.0317995,391.994,0.0332742,391.994,0.0355131,
390.447,0.0298172,390.447,0.030051,390.447,0.0305062,390.447,0.0315525,390.447,0.0335484,390.447,0.0356086,
389.054,0.0293213,389.054,0.0297076,389.054,0.030136,389.054,0.0312822,389.054,0.0330831,389.054,0.0352824,
387.506,0.0300334,387.506,0.030483,387.506,0.0305847,387.506,0.0318771,387.506,0.0336063,387.506,0.0359301,
385.957,0.0300031,385.957,0.0306935,385.957,0.0306192,385.957,0.0319533,385.957,0.0335254,385.957,0.0359225,
384.563,0.0304315,384.563,0.0310158,384.563,0.0312809,384.563,0.0325365,384.563,0.0341929,384.563,0.0364515,
383.014,0.0306529,383.014,0.0311036,383.014,0.0315409,383.014,0.0327495,383.014,0.0344836,383.014,0.0372178,
381.464,0.0314363,381.464,0.0316926,381.464,0.0318188,381.464,0.033402,381.464,0.0351293,381.464,0.0374814,
380.069,0.0319228,380.069,0.0321585,380.069,0.0327019,380.069,0.0338568,380.069,0.0357876,380.069,0.0383793,
378.519,0.0323979,378.519,0.0328694,378.519,0.0335585,378.519,0.0345237,378.519,0.0365456,378.519,0.0390203,
376.968,0.0337912,376.968,0.0342825,376.968,0.0346769,376.968,0.0357024,376.968,0.037709,376.968,0.0402485,
375.573,0.0346437,375.573,0.0349096,375.573,0.0354854,375.573,0.0364854,375.573,0.0385451,375.573,0.0409543,
374.021,0.0356098,374.021,0.0360697,374.021,0.0362996,374.021,0.0373905,374.021,0.0398414,374.021,0.042362,
372.47,0.037026,372.47,0.0368722,372.47,0.0372162,372.47,0.0382412,372.47,0.0406822,372.47,0.0430735,
371.073,0.0375013,371.073,0.0379697,371.073,0.0382558,371.073,0.0392738,371.073,0.0417364,371.073,0.0443516,
369.52,0.0386613,369.52,0.0391519,369.52,0.0395123,369.52,0.0407307,369.52,0.0430083,369.52,0.0455157,
367.968,0.0400474,367.968,0.0400097,367.968,0.0405391,367.968,0.0413667,367.968,0.0438067,367.968,0.0466665,
366.57,0.0407672,366.57,0.0409722,366.57,0.0414064,366.57,0.0426282,366.57,0.0449709,366.57,0.0477869,
365.016,0.0415352,365.016,0.041997,365.016,0.0423048,365.016,0.0434883,365.016,0.0459174,365.016,0.0487088,
363.463,0.0426371,363.463,0.0426353,363.463,0.0430947,363.463,0.04391,363.463,0.0466107,363.463,0.0494686,
362.064,0.0428679,362.064,0.0430654,362.064,0.0433905,362.064,0.044613,362.064,0.047254,362.064,0.0501378,
360.51,0.0438491,360.51,0.0440134,360.51,0.0443264,360.51,0.0456803,360.51,0.0482024,360.51,0.0510676,
358.955,0.0437944,358.955,0.0442352,358.955,0.0443062,358.955,0.0456764,358.955,0.048267,358.955,0.0512369,
357.555,0.0443724,357.555,0.0446812,357.555,0.0451054,357.555,0.0463567,357.555,0.0492068,357.555,0.0519763,
356,0.0447855,356,0.04525,356,0.0453379,356,0.0467729,356,0.049438,356,0.0523275,
354.444,0.0452787,354.444,0.0454984,354.444,0.0456761,354.444,0.0471427,354.444,0.0497645,354.444,0.052923,
353.044,0.0455256,353.044,0.0456283,353.044,0.0459424,353.044,0.0472411,353.044,0.0499934,353.044,0.0531241,
351.487,0.0455139,351.487,0.0457762,351.487,0.0458851,351.487,0.0474352,351.487,0.0499641,351.487,0.0531695,
349.93,0.045452,349.93,0.0458456,349.93,0.0460909,349.93,0.0478448,349.93,0.0503105,349.93,0.0534494,
348.529,0.0454917,348.529,0.0458748,348.529,0.046117,348.529,0.0476161,348.529,0.0503301,348.529,0.0535784,
346.972,0.0452764,346.972,0.0458965,346.972,0.0460462,346.972,0.0474852,346.972,0.0501464,346.972,0.0535318,
345.57,0.0454301,345.57,0.0461026,345.57,0.0461189,345.57,0.0477583,345.57,0.0504859,345.57,0.0538596,
344.012,0.0457176,344.012,0.046216,344.012,0.0462812,344.012,0.0477616,344.012,0.0506447,344.012,0.0538739,
342.453,0.0453854,342.453,0.0460248,342.453,0.0462211,342.453,0.0476585,342.453,0.0506408,342.453,0.0538233,
341.05,0.0452279,341.05,0.0458309,341.05,0.0462466,341.05,0.04764,341.05,0.0505102,341.05,0.05381,
339.491,0.0451165,339.491,0.0457894,339.491,0.0461853,339.491,0.0473269,339.491,0.0503284,339.491,0.0538321,
337.932,0.0451365,337.932,0.0456765,337.932,0.0459149,337.932,0.0472399,337.932,0.0503683,337.932,0.0539301,
336.529,0.0447943,336.529,0.0452701,336.529,0.0455188,336.529,0.0469827,336.529,0.0501838,336.529,0.05346,
334.969,0.0446969,334.969,0.0451611,334.969,0.045346,334.969,0.0468743,334.969,0.050087,334.969,0.0533681,
333.564,0.0445806,333.564,0.0451466,333.564,0.0450397,333.564,0.0464818,333.564,0.0497881,333.564,0.0531315,
332.004,0.0442286,332.004,0.0447578,332.004,0.0448302,332.004,0.0464525,332.004,0.0496694,332.004,0.0531911,
330.443,0.0441295,330.443,0.0444668,330.443,0.0445048,330.443,0.0461763,330.443,0.0495088,330.443,0.0530969,
329.038,0.0437515,329.038,0.0445002,329.038,0.0443831,329.038,0.0460634,329.038,0.0493405,329.038,0.0529956,
327.476,0.0435885,327.476,0.044398,327.476,0.0441047,327.476,0.0458849,327.476,0.0490805,327.476,0.0528403,
326.071,0.0435091,326.071,0.0443706,326.071,0.0441536,326.071,0.0460028,326.071,0.0491939,326.071,0.0532094,
324.509,0.043535,324.509,0.0442493,324.509,0.0442164,324.509,0.0460868,324.509,0.0495686,324.509,0.0536236,
322.946,0.0438761,322.946,0.0447753,322.946,0.0445471,322.946,0.0466111,322.946,0.0500922,322.946,0.0545744,
321.54,0.0440576,321.54,0.0447856,321.54,0.0449387,321.54,0.0469289,321.54,0.0507667,321.54,0.0555809,
319.977,0.0444983,319.977,0.0453135,319.977,0.045399,319.977,0.0479115,319.977,0.051905,319.977,0.0574111,
318.57,0.0450664,318.57,0.0461752,318.57,0.0467173,318.57,0.0493992,318.57,0.0542424,318.57,0.06094,
317.007,0.0457768,317.007,0.0474517,317.007,0.0483005,317.007,0.052073,317.007,0.0577471,317.007,0.0664425,
315.443,0.0473261,315.443,0.0493592,315.443,0.0513038,315.443,0.0562186,315.443,0.0635987,315.443,0.0752035,
314.035,0.0492844,314.035,0.05210777,314.035,0.055651,314.035,0.0621872,314.035,0.0722769,314.035,0.0883619,
312.471,0.0519509,312.471,0.0566012,312.471,0.0617443,312.471,0.0723148,312.471,0.0859633,312.471,0.110587,
311.062,0.056392,311.062,0.06256,311.062,0.0719148,311.062,0.0879254,311.062,0.109043,311.062,0.14643,
309.497,0.0629849,309.497,0.0730133,309.497,0.0886146,309.497,0.116153,309.497,0.149226,309.497,0.213503,
307.932,0.071459,307.932,0.0880042,307.932,0.11175,307.932,0.151959,307.932,0.209058,307.932,0.316628,
306.523,0.0825263,306.523,0.106754,306.523,0.14379,306.523,0.207433,306.523,0.300619,306.523,0.469547,
304.957,0.103579,304.957,0.145169,304.957,0.206158,304.957,0.315025,304.957,0.485132,304.957,0.786946,
303.548,0.135901,303.548,0.199987,303.548,0.300487,303.548,0.479513,303.548,0.753355,303.548,1.25543,
301.981,0.175008,301.981,0.266863,301.981,0.418572,301.981,0.681529,301.981,1.10345,301.981,1.83113,
300.571,0.206961,300.571,0.325186,300.571,0.517818,300.571,0.863425,300.571,1.40556,300.571,2.34169,
299.004,0.230668,299.004,0.367161,299.004,0.591716,299.004,0.996327,299.004,1.63935,299.004,2.70828,
297.437,0.243105,297.437,0.388858,297.437,0.629358,297.437,1.06131,297.437,1.75337,297.437,2.81565,
296.026,0.253304,296.026,0.406069,296.026,0.660655,296.026,1.11952,296.026,1.86265,296.026,3.00503,
294.458,0.26198,294.458,0.422234,294.458,0.687896,294.458,1.1677,294.458,1.9419,294.458,3.0443,
293.047,0.265008,293.047,0.427589,293.047,0.697626,293.047,1.18545,293.047,1.97259,293.047,3.06843,
291.479,0.263344,291.479,0.425087,291.479,0.694029,291.479,1.18144,291.479,1.97253,291.479,3.16499,
290.067,0.260751,290.067,0.420286,290.067,0.686144,290.067,1.16863,290.067,1.95051,290.067,3.14452,
288.498,0.254012,288.498,0.408513,288.498,0.66582,288.498,1.13355,288.498,1.898,288.498,3.08921,
286.929,0.243941,286.929,0.390859,286.929,0.635163,286.929,1.08077,286.929,1.81136,286.929,3.01547,
285.517,0.232047,285.517,0.369722,285.517,0.598618,285.517,1.01863,285.517,1.70519,285.517,2.88844,
283.947,0.218787,283.947,0.345663,283.947,0.557273,283.947,0.945504,283.947,1.58782,283.947,2.69526,
282.534,0.207793,282.534,0.327157,282.534,0.525029,282.534,0.889598,282.534,1.4937,282.534,2.59257,
280.964,0.19233,280.964,0.300041,280.964,0.478111,280.964,0.806371,280.964,1.35355,280.964,2.32671,
279.551,0.177885,279.551,0.274319,279.551,0.433468,279.551,0.728897,279.551,1.22201,279.551,2.11615,
277.98,0.164661,277.98,0.250478,277.98,0.394029,277.98,0.66032,277.98,1.10068,277.98,1.92354,
276.566,0.153319,276.566,0.230989,276.566,0.359585,276.566,0.60035,276.566,1.00072,276.566,1.73867,
274.995,0.141811,274.995,0.210733,274.995,0.324494,274.995,0.537328,274.995,0.89346,274.995,1.55321,
273.423,0.128747,273.423,0.188327,273.423,0.285658,273.423,0.471549,273.423,0.780868,273.423,1.35304,
272.009,0.120358,272.009,0.173888,272.009,0.260628,272.009,0.42688,272.009,0.70081,272.009,1.21333,
270.437,0.111834,270.437,0.158764,270.437,0.235841,270.437,0.381726,270.437,0.624883,270.437,1.07928,
269.022,0.10529,269.022,0.147279,269.022,0.215491,269.022,0.346774,269.022,0.565031,269.022,0.972088,
267.449,0.10007,267.449,0.13855,267.449,0.200608,267.449,0.321583,267.449,0.521224,267.449,0.893253,
266.034,0.0963714,266.034,0.132358,266.034,0.189734,266.034,0.301567,266.034,0.486241,266.034,0.830849,
264.461,0.0922057,264.461,0.126342,264.461,0.180493,264.461,0.286671,264.461,0.460264,264.461,0.784374,
263.045,0.0905539,263.045,0.124509,263.045,0.17816,263.045,0.283239,263.045,0.45442,263.045,0.774793,
261.472,0.0911363,261.472,0.126276,261.472,0.181409,261.472,0.289351,261.472,0.463941,261.472,0.79125,
260.055,0.0931933,260.055,0.129975,260.055,0.187936,260.055,0.300311,260.055,0.481887,260.055,0.821191,
258.481,0.0971693,258.481,0.137415,258.481,0.201043,258.481,0.32376,258.481,0.522582,258.481,0.892717,
257.065,0.101678,257.065,0.145055,257.065,0.216591,257.065,0.350313,257.065,0.568114,257.065,0.974624,
255.49,0.108945,255.49,0.159282,255.49,0.239318,255.49,0.391895,255.49,0.636938,255.49,1.09588,
254.073,0.115833,254.073,0.172464,254.073,0.263307,254.073,0.432758,254.073,0.707881,254.073,1.22261,
252.498,0.122395,252.498,0.184625,252.498,0.285691,252.498,0.471969,252.498,0.77713,252.498,1.34398,
250.923,0.131623,250.923,0.201801,250.923,0.315354,250.923,0.526354,250.923,0.867367,250.923,1.50807,
249.508,0.140614,249.508,0.218294,249.508,0.344346,249.508,0.577031,249.508,0.956242,249.508,1.66258,
247.942,0.14873,247.942,0.233266,247.942,0.371384,247.942,0.626595,247.942,1.04315,247.942,1.81695,
246.533,0.156016,246.533,0.245806,246.533,0.393744,246.533,0.665073,246.533,1.10843,246.533,1.9275,
244.966,0.163859,244.966,0.260586,244.966,0.420442,244.966,0.713382,244.966,1.19373,244.966,2.08634,
243.556,0.171325,243.556,0.273744,243.556,0.44263,243.556,0.753407,243.556,1.26301,243.556,2.20536,
241.989,0.176998,241.989,0.284871,241.989,0.463305,241.989,0.790751,241.989,1.32687,241.989,2.305,
240.578,0.184668,240.578,0.297511,240.578,0.48402,240.578,0.826249,240.578,1.38767,240.578,2.37287,
239.011,0.190373,239.011,0.307444,239.011,0.502287,239.011,0.859244,239.011,1.44221,239.011,2.46147,
237.443,0.196955,237.443,0.318094,237.443,0.519022,237.443,0.887819,237.443,1.49293,237.443,2.55205,
236.032,0.202742,236.032,0.328049,236.032,0.535785,236.032,0.916343,236.032,1.53812,236.032,2.58885,
234.464,0.211757,234.464,0.342167,234.464,0.558826,234.464,0.95685,234.464,1.60641,234.464,2.67682,
233.052,0.222812,233.052,0.36009,233.052,0.588057,233.052,1.00418,233.052,1.68387,233.052,2.83645,
231.484,0.234446,231.484,0.379245,231.484,0.618087,231.484,1.05743,231.484,1.7661,231.484,3.00982,
230.072,0.248948,230.072,0.402925,230.072,0.655875,230.072,1.121,230.072,1.8759,230.072,3.18887,
228.503,0.267531,228.503,0.431904,228.503,0.703578,228.503,1.20023,228.503,2.00196,228.503,3.1428,
226.934,0.296298,226.934,0.477324,226.934,0.779234,226.934,1.32666,226.934,2.19503,226.934,3.2516,
225.521,0.329353,225.521,0.532605,225.521,0.873659,225.521,1.47836,225.521,2.42797,225.521,3.32624,
223.952,0.372114,223.952,0.602706,223.952,0.987763,223.952,1.66908,223.952,2.67655,223.952,3.36218,
222.539,0.418803,222.539,0.683867,222.539,1.10785,222.539,1.86719,222.539,2.86441,222.539,3.41824,
220.969,0.482175,220.969,0.782493,220.969,1.28113,220.969,2.12784,220.969,3.07584,220.969,3.30031,
219.555,0.569187,219.555,0.928447,219.555,1.50762,219.555,2.45308,219.555,3.27625,219.555,3.37847,
217.985,0.692329,217.985,1.145,217.985,1.83345,217.985,2.85023,217.985,3.22403,217.985,3.30108,
216.572,0.809863,216.572,1.33442,216.572,2.13231,216.572,3.00537,216.572,3.13796,216.572,3.33524,
215.001,0.971029,215.001,1.6095,215.001,2.4923,215.001,3.12335,215.001,3.23805,215.001,3.32093,
213.43,1.12811,213.43,1.87156,213.43,2.73578,213.43,3.10006,213.43,3.22346,213.43,3.32316,
212.016,1.26953,212.016,2.07751,212.016,2.84883,212.016,3.12487,212.016,3.16147,212.016,3.31302,
210.444,1.42006,210.444,2.28789,210.444,2.95774,210.444,3.15823,210.444,3.28354,210.444,3.39703,
209.03,1.48563,209.03,2.38406,209.03,2.9566,209.03,3.13118,209.03,3.13662,209.03,3.25251,
207.458,1.53438,207.458,2.44945,207.458,2.98433,207.458,3.17899,207.458,3.25756,207.458,3.34905,
206.043,1.55043,206.043,2.4621,206.043,3.10679,206.043,3.13279,206.043,3.19608,206.043,3.43411,
204.471,1.54099,204.471,2.45981,204.471,3.0859,204.471,3.17905,204.471,3.25496,204.471,3.32505,
203.056,1.50119,203.056,2.38765,203.056,2.97727,203.056,3.11095,203.056,3.12003,203.056,3.21541,
201.483,1.43687,201.483,2.27731,201.483,2.91435,201.483,3.06991,201.483,3.09847,201.483,3.18128,
200.068,1.37431,200.068,2.18699,200.068,2.99108,200.068,3.11247,200.068,3.2054,200.068,3.16766,

is_2_8_7uM,
is_2_8_7uM
Collection Time: 4/29/2024 10:38:49 AM
Operator Name  :
Scan Software Version: 3.00(339)
Parameter List :
Instrument                        Cary 50
Instrument Version                3.00
Start (nm)                        800.0
Stop (nm)                         200.0
X Mode                            Nanometers
Y Mode                            Abs
UV-Vis Scan Rate (nm/min)         300.00
UV-Vis Data Interval (nm)         0.50
UV-Vis Ave. Time (sec)            0.1000
Beam Mode                         Dual Beam
Baseline Correction               Off
Cycle Mode                        Off
Comments
Method Log     :
Method Name    :
Date/Time stamp: 4/20/2024 5:05:46 PM
Method Modifications:
UVVIS SAT Changed: 4/29/2024 10:37:33 AM, Old:0.0125, New:0.1000
Common SAT Changed: 4/29/2024 10:37:33 AM, Old:0.0125, New:0.1000
Common Interval nm Changed: 4/29/2024 10:37:34 AM, Old:     5.00, New:     0.50
End Method Modifications
<Current Wavelength> , 200.5

is_2_8_15uM,
is_2_8_15uM
Collection Time: 4/29/2024 10:45:11 AM
Operator Name  :
Scan Software Version: 3.00(339)
Parameter List :
Instrument                        Cary 50
Instrument Version                3.00
Start (nm)                        800.0
Stop (nm)                         200.0
X Mode                            Nanometers
Y Mode                            Abs
UV-Vis Scan Rate (nm/min)         300.00
UV-Vis Data Interval (nm)         0.50
UV-Vis Ave. Time (sec)            0.1000
Beam Mode                         Dual Beam
Baseline Correction               Off
Cycle Mode                        Off
Comments
Method Log     :
Method Name    :
Date/Time stamp: 4/20/2024 5:05:46 PM
Method Modifications:
UVVIS SAT Changed: 4/29/2024 10:37:33 AM, Old:0.0125, New:0.1000
Common SAT Changed: 4/29/2024 10:37:33 AM, Old:0.0125, New:0.1000
Common Interval nm Changed: 4/29/2024 10:37:34 AM, Old:     5.00, New:     0.50
End Method Modifications
<Current Wavelength> , 200.5

is_2_8_31uM,
is_2_8_31uM
Collection Time: 4/29/2024 10:49:08 AM
Operator Name  :
Scan Software Version: 3.00(339)
Parameter List :
Instrument                        Cary 50
Instrument Version                3.00
Start (nm)                        800.0
Stop (nm)                         200.0
X Mode                            Nanometers
Y Mode                            Abs
UV-Vis Scan Rate (nm/min)         300.00
UV-Vis Data Interval (nm)         0.50
UV-Vis Ave. Time (sec)            0.1000
Beam Mode                         Dual Beam
Baseline Correction               Off
Cycle Mode                        Off
Comments
Method Log     :
Method Name    :
Date/Time stamp: 4/20/2024 5:05:46 PM
Method Modifications:
UVVIS SAT Changed: 4/29/2024 10:37:33 AM, Old:0.0125, New:0.1000
Common SAT Changed: 4/29/2024 10:37:33 AM, Old:0.0125, New:0.1000
Common Interval nm Changed: 4/29/2024 10:37:34 AM, Old:     5.00, New:     0.50
End Method Modifications
<Current Wavelength> , 200.5

is_2_8_62uM,
is_2_8_62uM
Collection Time: 4/29/2024 10:52:12 AM
Operator Name  :
Scan Software Version: 3.00(339)
Parameter List :
Instrument                        Cary 50
Instrument Version                3.00
Start (nm)                        800.0
Stop (nm)                         200.0
X Mode                            Nanometers
Y Mode                            Abs
UV-Vis Scan Rate (nm/min)         300.00
UV-Vis Data Interval (nm)         0.50
UV-Vis Ave. Time (sec)            0.1000
Beam Mode                         Dual Beam
Baseline Correction               Off
Cycle Mode                        Off
Comments
Method Log     :
Method Name    :
Date/Time stamp: 4/20/2024 5:05:46 PM
Method Modifications:
UVVIS SAT Changed: 4/29/2024 10:37:33 AM, Old:0.0125, New:0.1000
Common SAT Changed: 4/29/2024 10:37:33 AM, Old:0.0125, New:0.1000
Common Interval nm Changed: 4/29/2024 10:37:34 AM, Old:     5.00, New:     0.50
End Method Modifications
<Current Wavelength> , 200.5

is_2_8_125uM1,
is_2_8_125uM1
Collection Time: 4/29/2024 10:56:22 AM
Operator Name  :
Scan Software Version: 3.00(339)
Parameter List :
Instrument                        Cary 50
Instrument Version                3.00
Start (nm)                        800.0
Stop (nm)                         200.0
X Mode                            Nanometers
Y Mode                            Abs
UV-Vis Scan Rate (nm/min)         300.00
UV-Vis Data Interval (nm)         0.50
UV-Vis Ave. Time (sec)            0.1000
Beam Mode                         Dual Beam
Baseline Correction               Off
Cycle Mode                        Off
Comments
Method Log     :
Method Name    :
Date/Time stamp: 4/20/2024 5:05:46 PM
Method Modifications:
UVVIS SAT Changed: 4/29/2024 10:37:33 AM, Old:0.0125, New:0.1000
Common SAT Changed: 4/29/2024 10:37:33 AM, Old:0.0125, New:0.1000
Common Interval nm Changed: 4/29/2024 10:37:34 AM, Old:     5.00, New:     0.50
End Method Modifications
<Current Wavelength> , 200.5

is_2_8_250uM,
is_2_8_250uM
Collection Time: 4/29/2024 10:59:28 AM
Operator Name  :
Scan Software Version: 3.00(339)
Parameter List :
Instrument                        Cary 50
Instrument Version                3.00
Start (nm)                        800.0
Stop (nm)                         200.0
X Mode                            Nanometers
Y Mode                            Abs
UV-Vis Scan Rate (nm/min)         300.00
UV-Vis Data Interval (nm)         0.50
UV-Vis Ave. Time (sec)            0.1000
Beam Mode                         Dual Beam
Baseline Correction               Off
Cycle Mode                        Off
Comments
Method Log     :
Method Name    :
Date/Time stamp: 4/20/2024 5:05:46 PM
Method Modifications:
UVVIS SAT Changed: 4/29/2024 10:37:33 AM, Old:0.0125, New:0.1000
Common SAT Changed: 4/29/2024 10:37:33 AM, Old:0.0125, New:0.1000
Common Interval nm Changed: 4/29/2024 10:37:34 AM, Old:     5.00, New:     0.50
End Method Modifications
<Current Wavelength> , 200.5