File: silicates_UV_vis/Allylsilicates_plot/is_2_7_allyl_fluoro.csv
is_2_7_7uM,,is_2_7_15uM,,is_2_7_31uM,,is_2_7_62uM,,is_2_7_125uM,,is_2_7_250uM,,
Wavelength (nm),Abs,Wavelength (nm),Abs,Wavelength (nm),Abs,Wavelength (nm),Abs,Wavelength (nm),Abs,Wavelength (nm),Abs,
799.953,0.000261527,799.953,-0.000132309,799.953,0.000266215,799.953,-5.79842e-06,799.953,-0.000433994,799.953,0.000531505,
798.565,0.000589513,798.565,0.00144448,798.565,0.00078189,798.565,0.00103395,798.565,0.0012879,798.565,0.00133736,
797.037,0.000353099,797.037,0.000755232,797.037,0.000684006,797.037,0.000868773,797.037,0.00037582,797.037,0.00032069,
795.509,7.22796e-05,795.509,0.000543557,795.509,0.000468504,795.509,0.0007905,795.509,-0.000158341,795.509,0.00110059,
793.979,-0.000517101,793.979,0.000385069,793.979,0.000291367,793.979,0.000574893,793.979,0.00083407,793.979,0.000381856,
792.449,-0.000664192,792.449,0.000409372,792.449,0.000107103,792.449,5.27847e-05,792.449,-7.175e-05,792.449,0.000385017,
791.057,-0.00102987,791.057,-0.000266906,791.057,-0.000427995,791.057,-7.91521e-05,791.057,-8.61917e-05,791.057,-3.00276e-06,
789.524,-0.000988805,789.524,-0.000757539,789.524,-0.000777694,789.524,3.52051e-06,789.524,-0.000497761,789.524,0.000140635,
787.991,-0.00131003,787.991,-0.00142816,787.991,-0.000991387,787.991,-0.000520565,787.991,-0.000806789,787.991,-0.000608929,
786.457,-0.00172838,786.457,-0.000749011,786.457,-0.00122284,786.457,-0.000417185,786.457,-0.000511619,786.457,-0.000521289,
785.062,-0.00165076,785.062,-0.00150793,785.062,-0.00131271,785.062,-0.000458612,785.062,-0.000778573,785.062,-0.000407978,
783.526,-0.00241382,783.526,-0.00152991,783.526,-0.00175009,783.526,-0.0021778,783.526,-0.00180299,783.526,-0.00128427,
781.989,-0.00178448,781.989,-0.00104572,781.989,-0.00118128,781.989,-0.0011566,781.989,-0.00122119,781.989,-0.000914261,
780.451,-0.00156535,780.451,-0.00129537,780.451,-0.00146696,780.451,-0.000959619,780.451,-0.00101484,780.451,-0.000675357,
779.053,-0.00230935,779.053,-0.00151933,779.053,-0.00156313,779.053,-0.0019281,779.053,-0.00196789,779.053,-0.000884864,
777.513,-0.00213664,777.513,-0.00214257,777.513,-0.00224343,777.513,-0.00193594,777.513,-0.00170971,777.513,-0.00109572,
775.973,-0.00201989,775.973,-0.00200665,775.973,-0.00174668,775.973,-0.00169594,775.973,-0.00220258,775.973,-0.00121778,
774.432,-0.00242191,774.432,-0.00225744,774.432,-0.00227072,774.432,-0.0016453,774.432,-0.0018698,774.432,-0.00151582,
773.03,-0.00274439,773.03,-0.0022939,773.03,-0.00180021,773.03,-0.00197428,773.03,-0.00191547,773.03,-0.00181763,
771.487,-0.00250536,771.487,-0.0022631,771.487,-0.00216951,771.487,-0.00224307,771.487,-0.00225414,771.487,-0.00231965,
769.943,-0.00268887,769.943,-0.00258781,769.943,-0.00236501,769.943,-0.00256573,769.943,-0.00198315,769.943,-0.00204184,
768.539,-0.00291634,768.539,-0.00246181,768.539,-0.00244873,768.539,-0.00253922,768.539,-0.0030694,768.539,-0.0025524,
766.993,-0.00308719,766.993,-0.00290307,766.993,-0.00278703,766.993,-0.00241758,766.993,-0.00287447,766.993,-0.00224884,
765.447,-0.00368991,765.447,-0.00267508,765.447,-0.00292024,765.447,-0.00280596,765.447,-0.00303717,765.447,-0.00257047,
764.04,-0.00361793,764.04,-0.00313756,764.04,-0.00281954,764.04,-0.00279768,764.04,-0.00309906,764.04,-0.00254658,
762.492,-0.00393691,762.492,-0.00370284,762.492,-0.00273327,762.492,-0.00351986,762.492,-0.00314008,762.492,-0.00294868,
760.943,-0.00372641,760.943,-0.00357008,760.943,-0.00332056,760.943,-0.00315231,760.943,-0.0033278,760.943,-0.00317832,
759.534,-0.00411151,759.534,-0.00379467,759.534,-0.00388627,759.534,-0.00346922,759.534,-0.00345417,759.534,-0.0032569,
757.983,-0.00460551,757.983,-0.00393265,757.983,-0.00385676,757.983,-0.00396882,757.983,-0.00414351,757.983,-0.00345186,
756.432,-0.00474288,756.432,-0.00461268,756.432,-0.00404074,756.432,-0.00410449,756.432,-0.00405438,756.432,-0.00393393,
755.02,-0.00499532,755.02,-0.00448629,755.02,-0.00422325,755.02,-0.00407854,755.02,-0.00470559,755.02,-0.00391633,
753.467,-0.00520562,753.467,-0.00484503,753.467,-0.00456094,753.467,-0.00435054,753.467,-0.00476874,753.467,-0.00435335,
752.054,-0.00559672,752.054,-0.00559402,752.054,-0.00489458,752.054,-0.00499568,752.054,-0.00494531,752.054,-0.00438918,
750.499,-0.00548228,750.499,-0.00565524,750.499,-0.00509475,750.499,-0.00501784,750.499,-0.00542113,750.499,-0.00501292,
748.943,-0.00579452,748.943,-0.00549076,748.943,-0.00538621,748.943,-0.00544787,748.943,-0.00537659,748.943,-0.00542941,
747.528,-0.00650791,747.528,-0.00587354,747.528,-0.00536984,747.528,-0.00557899,747.528,-0.0059787,747.528,-0.0054856,
745.971,-0.00682054,745.971,-0.00594801,745.971,-0.00613937,745.971,-0.0058855,745.971,-0.006232,745.971,-0.00568897,
744.554,-0.00708894,744.554,-0.00668862,744.554,-0.00657773,744.554,-0.00639666,744.554,-0.00683848,744.554,-0.00594428,
742.995,-0.00753815,742.995,-0.00688506,742.995,-0.006989,742.995,-0.0064339,742.995,-0.0067604,742.995,-0.0065076,
741.435,-0.00839948,741.435,-0.00827408,741.435,-0.00775749,741.435,-0.00755118,741.435,-0.0079536,741.435,-0.00704718,
740.016,-0.00884586,740.016,-0.00806806,740.016,-0.00832584,740.016,-0.00800346,740.016,-0.00802578,740.016,-0.00768324,
738.454,-0.00826793,738.454,-0.00820596,738.454,-0.00786794,738.454,-0.00772133,738.454,-0.00811156,738.454,-0.00722879,
737.034,-0.00904558,737.034,-0.00906622,737.034,-0.00867731,737.034,-0.00832823,737.034,-0.00875327,737.034,-0.00819585,
735.47,-0.00886219,735.47,-0.00865543,735.47,-0.0087077,735.47,-0.00850468,735.47,-0.00841659,735.47,-0.00815698,
734.048,-0.0089225,734.048,-0.00848412,734.048,-0.00842756,734.048,-0.00817314,734.048,-0.00827957,734.048,-0.00824264,
732.483,-0.00861006,732.483,-0.00815785,732.483,-0.00826545,732.483,-0.00815424,732.483,-0.0083297,732.483,-0.00788161,
731.06,-0.00918266,731.06,-0.00899558,731.06,-0.0088731,731.06,-0.00862838,731.06,-0.00876753,731.06,-0.0081549,
729.493,-0.0100629,729.493,-0.00949763,729.493,-0.00957208,729.493,-0.00919123,729.493,-0.00976195,729.493,-0.00898762,
728.068,-0.0108935,728.068,-0.0104901,728.068,-0.0105667,728.068,-0.0102929,728.068,-0.0106512,728.068,-0.00988763,
726.5,-0.0122554,726.5,-0.0118393,726.5,-0.0117232,726.5,-0.0113086,726.5,-0.0117294,726.5,-0.0111734,
724.931,-0.0134394,724.931,-0.0128409,724.931,-0.0126841,724.931,-0.0124911,724.931,-0.0128424,724.931,-0.0121875,
723.504,-0.013841,723.504,-0.0135574,723.504,-0.0134986,723.504,-0.013368,723.504,-0.0135742,723.504,-0.0125237,
721.933,-0.0144748,721.933,-0.0141513,721.933,-0.0140174,721.933,-0.0138133,721.933,-0.0138634,721.933,-0.0133248,
720.505,-0.0151391,720.505,-0.0144934,720.505,-0.0145848,720.505,-0.0141698,720.505,-0.0144845,720.505,-0.0136487,
718.932,-0.0150409,718.932,-0.014723,718.932,-0.0145065,718.932,-0.014214,718.932,-0.0144651,718.932,-0.0139001,
717.502,-0.0152563,717.502,-0.0146993,717.502,-0.0145584,717.502,-0.0143163,717.502,-0.0146897,717.502,-0.0139981,
715.928,-0.014672,715.928,-0.0143051,715.928,-0.0142667,715.928,-0.0138422,715.928,-0.0140967,715.928,-0.0135828,
714.497,-0.0143493,714.497,-0.0138297,714.497,-0.0137663,714.497,-0.013348,714.497,-0.0136966,714.497,-0.013287,
713.065,-0.0135369,713.065,-0.0131932,713.065,-0.0129278,713.065,-0.0126025,713.065,-0.0130305,713.065,-0.0123705,
711.488,-0.0124068,711.488,-0.0121328,711.488,-0.0118769,711.488,-0.0116088,711.488,-0.0118221,711.488,-0.0115142,
710.055,-0.0111475,710.055,-0.0106551,710.055,-0.0104008,710.055,-0.0102202,710.055,-0.0103193,710.055,-0.0100167,
708.477,-0.00957684,708.477,-0.00914794,708.477,-0.00897641,708.477,-0.00887721,708.477,-0.0090256,708.477,-0.00863813,
707.042,-0.0079753,707.042,-0.00766254,707.042,-0.00718362,707.042,-0.00716707,707.042,-0.00729849,707.042,-0.00701534,
705.463,-0.00572172,705.463,-0.00504798,705.463,-0.00480924,705.463,-0.00498918,705.463,-0.00509214,705.463,-0.00442003,
704.026,-0.00397359,704.026,-0.00316049,704.026,-0.00333972,704.026,-0.00313504,704.026,-0.00329888,704.026,-0.00279979,
702.445,-0.00214787,702.445,-0.00146485,702.445,-0.00115665,702.445,-0.00111782,702.445,-0.00147192,702.445,-0.000878406,
701.007,0.000170311,701.007,0.000776989,701.007,0.00087352,701.007,0.00115779,701.007,0.00104,701.007,0.00121196,
699.569,0.00207698,699.569,0.00266215,699.569,0.00273897,699.569,0.00285993,699.569,0.00259181,699.569,0.00307954,
697.985,0.00403949,697.985,0.00449922,697.985,0.00476015,697.985,0.00478519,697.985,0.00445688,697.985,0.00503671,
696.545,0.00585244,696.545,0.00666648,696.545,0.0061721,696.545,0.00658878,696.545,0.00641386,696.545,0.00718495,
694.961,0.00773499,694.961,0.00865245,694.961,0.00844745,694.961,0.00850178,694.961,0.00820693,694.961,0.00873015,
693.519,0.00872716,693.519,0.0100645,693.519,0.0099969,693.519,0.0100448,693.519,0.0093874,693.519,0.00991119,
691.933,0.0106733,691.933,0.0116009,691.933,0.0111902,691.933,0.0112411,691.933,0.0109564,691.933,0.0118628,
690.49,0.0119116,690.49,0.0128998,690.49,0.0125217,690.49,0.0123729,690.49,0.0122873,690.49,0.0129302,
689.046,0.0126657,689.046,0.0136249,689.046,0.013272,689.046,0.0136005,689.046,0.0129719,689.046,0.0137433,
687.458,0.0137632,687.458,0.0145762,687.458,0.014789,687.458,0.014621,687.458,0.0147417,687.458,0.0149816,
686.013,0.0152155,686.013,0.0163183,686.013,0.0160682,686.013,0.0158349,686.013,0.0158304,686.013,0.0164742,
684.567,0.0153554,684.567,0.0160082,684.567,0.0161268,684.567,0.0163662,684.567,0.0156948,684.567,0.0166604,
682.976,0.0160475,682.976,0.0164983,682.976,0.0167198,682.976,0.0166743,682.976,0.0167472,682.976,0.0168844,
681.53,0.0165887,681.53,0.0173034,681.53,0.0170048,681.53,0.0177354,681.53,0.0176981,681.53,0.0178372,
679.937,0.0173568,679.937,0.0178561,679.937,0.0178834,679.937,0.0179616,679.937,0.0177317,679.937,0.0182928,
678.489,0.0174527,678.489,0.0178621,678.489,0.0181104,678.489,0.0182068,678.489,0.0181562,678.489,0.018658,
677.04,0.0177735,677.04,0.0184435,677.04,0.0185778,677.04,0.0185471,677.04,0.0187437,677.04,0.0189689,
675.445,0.0179745,675.445,0.0187488,675.445,0.0186969,675.445,0.0188433,675.445,0.0188728,675.445,0.0195916,
673.995,0.0183485,673.995,0.0188821,673.995,0.0188924,673.995,0.0194538,673.995,0.0186135,673.995,0.0194987,
672.544,0.01828,672.544,0.0192474,672.544,0.0193979,672.544,0.0196809,672.544,0.019118,672.544,0.0195177,
670.947,0.018573,670.947,0.0191298,670.947,0.0198393,670.947,0.0195543,670.947,0.0197296,670.947,0.0197888,
669.495,0.019216,669.495,0.0200064,669.495,0.0200986,669.495,0.0201677,669.495,0.0201403,669.495,0.0207116,
668.042,0.0183905,668.042,0.0188561,668.042,0.0192168,668.042,0.0192324,668.042,0.0195521,668.042,0.0196544,
666.443,0.017531,666.443,0.017983,666.443,0.0181209,666.443,0.0184341,666.443,0.0182074,666.443,0.018789,
664.988,0.0169589,664.988,0.0173295,664.988,0.0177211,664.988,0.0178858,664.988,0.0177169,664.988,0.0181468,
663.533,0.0163951,663.533,0.017065,663.533,0.0174922,663.533,0.0174481,663.533,0.0172785,663.533,0.0176998,
661.932,0.0163537,661.932,0.0168828,661.932,0.0174751,661.932,0.0172046,661.932,0.0173578,661.932,0.017769,
660.476,0.0163063,660.476,0.016613,660.476,0.0170671,660.476,0.0171319,660.476,0.0168767,660.476,0.0174671,
659.019,0.016087,659.019,0.0170168,659.019,0.0170347,659.019,0.0171624,659.019,0.0168007,659.019,0.0172722,
657.561,0.016046,657.561,0.0165836,657.561,0.0170163,657.561,0.0170481,657.561,0.016844,657.561,0.0173945,
655.957,0.0158724,655.957,0.0163613,655.957,0.0166643,655.957,0.0169573,655.957,0.0165715,655.957,0.0172598,
654.498,0.0158689,654.498,0.0165332,654.498,0.0166492,654.498,0.0165033,654.498,0.0164699,654.498,0.0169301,
653.039,0.0157742,653.039,0.0162754,653.039,0.0169454,653.039,0.0168018,653.039,0.0165709,653.039,0.0170548,
651.433,0.0157648,651.433,0.0162853,651.433,0.0167759,651.433,0.017031,651.433,0.0165741,651.433,0.0169673,
649.972,0.0164098,649.972,0.0170316,649.972,0.0172687,649.972,0.0173726,649.972,0.0171558,649.972,0.0175364,
648.51,0.0158313,648.51,0.0167103,648.51,0.016784,648.51,0.0168627,648.51,0.0167098,648.51,0.0170376,
647.048,0.015605,647.048,0.0162902,647.048,0.0164226,647.048,0.0169314,647.048,0.0164398,647.048,0.0169488,
645.439,0.0157222,645.439,0.0162279,645.439,0.0166483,645.439,0.0167489,645.439,0.0165092,645.439,0.0166892,
643.976,0.0162598,643.976,0.0170719,643.976,0.0169964,643.976,0.0173577,643.976,0.0168577,643.976,0.0176385,
642.512,0.0155609,642.512,0.0160899,642.512,0.0165328,642.512,0.0166215,642.512,0.0165612,642.512,0.0168473,
641.047,0.0160743,641.047,0.0166043,641.047,0.0166697,641.047,0.0167714,641.047,0.0163275,641.047,0.0167017,
639.435,0.0158394,639.435,0.0163611,639.435,0.0168492,639.435,0.0165806,639.435,0.0164452,639.435,0.0170791,
637.969,0.0155735,637.969,0.0161633,637.969,0.0164652,637.969,0.0170594,637.969,0.0164526,637.969,0.0168886,
636.503,0.0157297,636.503,0.016342,636.503,0.016466,636.503,0.0169715,636.503,0.0165703,636.503,0.0167042,
635.035,0.0157163,635.035,0.0162515,635.035,0.0166974,635.035,0.0167348,635.035,0.0165192,635.035,0.0168622,
633.568,0.0155298,633.568,0.0164669,633.568,0.016565,633.568,0.0169303,633.568,0.0164361,633.568,0.0170279,
631.952,0.0156814,631.952,0.016215,631.952,0.0165356,631.952,0.0168618,631.952,0.0163338,631.952,0.0167199,
630.483,0.0156871,630.483,0.0160644,630.483,0.0165701,630.483,0.0169211,630.483,0.0164561,630.483,0.0171619,
629.013,0.0157123,629.013,0.0163327,629.013,0.0165297,629.013,0.0172232,629.013,0.0166355,629.013,0.0171442,
627.543,0.0158242,627.543,0.0163138,627.543,0.0168334,627.543,0.017123,627.543,0.016635,627.543,0.0170283,
626.072,0.0158495,626.072,0.0166897,626.072,0.0168078,626.072,0.0172209,626.072,0.0167211,626.072,0.0172319,
624.454,0.0160771,624.454,0.0165129,624.454,0.0166866,624.454,0.0172575,624.454,0.0170885,624.454,0.0172675,
622.981,0.016105,622.981,0.016701,622.981,0.0170905,622.981,0.0170902,622.981,0.0168883,622.981,0.0172559,
621.509,0.0160782,621.509,0.0168336,621.509,0.0167764,621.509,0.0173441,621.509,0.0167435,621.509,0.0172159,
620.035,0.0160339,620.035,0.0167257,620.035,0.016897,620.035,0.0170476,620.035,0.0168198,620.035,0.0172219,
618.561,0.0161929,618.561,0.0167116,618.561,0.016849,618.561,0.0172316,618.561,0.0169708,618.561,0.0171247,
616.939,0.0157581,616.939,0.0162661,616.939,0.0167252,616.939,0.0169961,616.939,0.016552,616.939,0.0172699,
615.464,0.0157234,615.464,0.0162412,615.464,0.0166779,615.464,0.0170443,615.464,0.0163638,615.464,0.0170632,
613.988,0.0156689,613.988,0.0163817,613.988,0.0167184,613.988,0.0168907,613.988,0.0162937,613.988,0.0168849,
612.512,0.0155579,612.512,0.0163114,612.512,0.0163311,612.512,0.0168,612.512,0.016444,612.512,0.0168748,
611.035,0.0153242,611.035,0.0160221,611.035,0.0163351,611.035,0.0166775,611.035,0.0163147,611.035,0.0168832,
609.557,0.015462,609.557,0.0161621,609.557,0.0164718,609.557,0.0167415,609.557,0.0163154,609.557,0.0169207,
607.931,0.0153051,607.931,0.0159376,607.931,0.0162604,607.931,0.0167056,607.931,0.0162669,607.931,0.0171003,
606.453,0.015197,606.453,0.0158497,606.453,0.0161409,606.453,0.0164634,606.453,0.016037,606.453,0.0163971,
604.973,0.0152307,604.973,0.0160322,604.973,0.0162676,604.973,0.0165719,604.973,0.016125,604.973,0.016923,
603.493,0.0154548,603.493,0.0160405,603.493,0.016072,603.493,0.016479,603.493,0.0160219,603.493,0.0167164,
602.013,0.0151873,602.013,0.0155834,602.013,0.0161377,602.013,0.016125,602.013,0.0161527,602.013,0.0164509,
600.531,0.0149987,600.531,0.0157419,600.531,0.0158658,600.531,0.0162445,600.531,0.0159483,600.531,0.0164485,
599.05,0.0150321,599.05,0.0156148,599.05,0.0159108,599.05,0.0160536,599.05,0.0156386,599.05,0.0161948,
597.568,0.0148008,597.568,0.0152915,597.568,0.0156557,597.568,0.016186,597.568,0.0159506,597.568,0.0161446,
595.936,0.0149157,595.936,0.0156197,595.936,0.0156965,595.936,0.0159833,595.936,0.0155884,595.936,0.0162103,
594.453,0.014715,594.453,0.0154548,594.453,0.0156611,594.453,0.0158512,594.453,0.0155728,594.453,0.0160994,
592.969,0.0146267,592.969,0.0150126,592.969,0.0153922,592.969,0.0158097,592.969,0.0154659,592.969,0.0159315,
591.484,0.0145495,591.484,0.0150351,591.484,0.0155103,591.484,0.0157476,591.484,0.0152558,591.484,0.015868,
589.999,0.0144767,589.999,0.0151379,589.999,0.0151822,589.999,0.0154278,589.999,0.0152126,589.999,0.0159137,
588.513,0.0143478,588.513,0.0149544,588.513,0.0150842,588.513,0.0153926,588.513,0.0149446,588.513,0.0157362,
587.027,0.0139651,587.027,0.0145244,587.027,0.0148224,587.027,0.0152097,587.027,0.0149197,587.027,0.0155328,
585.54,0.0138491,585.54,0.0145668,585.54,0.0148656,585.54,0.0150013,585.54,0.0148199,585.54,0.0153814,
584.052,0.0138485,584.052,0.0142019,584.052,0.0147506,584.052,0.0149626,584.052,0.0146266,584.052,0.015369,
582.564,0.0135705,582.564,0.0141208,582.564,0.0143068,582.564,0.0145068,582.564,0.0142966,582.564,0.0151027,
580.927,0.0132837,580.927,0.0138187,580.927,0.0141132,580.927,0.0144232,580.927,0.0142318,580.927,0.0148998,
579.438,0.0128457,579.438,0.0136471,579.438,0.0139254,579.438,0.0140598,579.438,0.0139551,579.438,0.0144745,
577.948,0.0127256,577.948,0.0134902,577.948,0.0137052,577.948,0.0141137,577.948,0.0134907,577.948,0.0142222,
576.458,0.0124648,576.458,0.0132121,576.458,0.0135388,576.458,0.0137528,576.458,0.0134663,576.458,0.0140319,
574.967,0.0123663,574.967,0.0129858,574.967,0.0132967,574.967,0.013447,574.967,0.0133407,574.967,0.0137813,
573.475,0.0125194,573.475,0.0127581,573.475,0.012962,573.475,0.0130617,573.475,0.0130284,573.475,0.0135549,
571.983,0.0115417,571.983,0.0124084,571.983,0.0127285,571.983,0.0128752,571.983,0.012646,571.983,0.0131073,
570.491,0.0112504,570.491,0.0120949,570.491,0.0122298,570.491,0.0124759,570.491,0.0122562,570.491,0.0130404,
568.998,0.0109784,568.998,0.0118609,568.998,0.0121786,568.998,0.0121548,568.998,0.0119989,568.998,0.0124948,
567.504,0.0107201,567.504,0.0114082,567.504,0.01158999,567.504,0.011874,567.504,0.0115999,567.504,0.0121192,
566.01,0.0102709,566.01,0.0110525,566.01,0.0115127,566.01,0.0114502,566.01,0.011318,566.01,0.0118255,
564.515,0.00968235,564.515,0.0104199,564.515,0.0108985,564.515,0.0109579,564.515,0.0105479,564.515,0.0112156,
563.02,0.00944131,563.02,0.0102981,563.02,0.0104738,563.02,0.0106177,563.02,0.0106193,563.02,0.0110452,
561.524,0.00902905,561.524,0.00985862,561.524,0.0102436,561.524,0.010319,561.524,0.0101796,561.524,0.0105518,
560.028,0.00857308,560.028,0.00932355,560.028,0.00979627,560.028,0.00980958,560.028,0.00954807,560.028,0.0102362,
558.531,0.00814204,558.531,0.00896824,558.531,0.00920746,558.531,0.00933381,558.531,0.00926978,558.531,0.00966009,
557.033,0.00778617,557.033,0.00853522,557.033,0.00883557,557.033,0.00894646,557.033,0.00871024,557.033,0.00936973,
555.535,0.00727238,555.535,0.00807426,555.535,0.00832321,555.535,0.008589,555.535,0.00830627,555.535,0.00898531,
554.037,0.00667936,554.037,0.00756359,554.037,0.00789189,554.037,0.0080181,554.037,0.00782151,554.037,0.00852284,
552.538,0.00641946,552.538,0.0073353,552.538,0.00758756,552.538,0.00774266,552.538,0.00767903,552.538,0.00812073,
551.038,0.00594234,551.038,0.00677642,551.038,0.00704846,551.038,0.00716076,551.038,0.00704677,551.038,0.00758698,
549.538,0.00553053,549.538,0.00631121,549.538,0.00658363,549.538,0.00674132,549.538,0.00659275,549.538,0.00712542,
548.038,0.00500178,548.038,0.00567401,548.038,0.00611657,548.038,0.00628901,548.038,0.0061705,548.038,0.00654269,
546.536,0.00475083,546.536,0.00547039,546.536,0.0058659,546.536,0.00595399,546.536,0.00592767,546.536,0.0063831,
545.035,0.00454227,545.035,0.0052645,545.035,0.00559479,545.035,0.00580286,545.035,0.00554765,545.035,0.00612177,
543.533,0.00414085,543.533,0.00494095,543.533,0.00541471,543.533,0.00546771,543.533,0.00527807,543.533,0.00577001,
542.03,0.00404378,542.03,0.00491071,542.03,0.00511507,542.03,0.00534135,542.03,0.00505617,542.03,0.00562371,
540.527,0.00415779,540.527,0.00495676,540.527,0.00534293,540.527,0.00553168,540.527,0.00531974,540.527,0.00588314,
539.023,0.00392671,539.023,0.00460244,539.023,0.00524728,539.023,0.00523453,539.023,0.00518632,539.023,0.00551823,
537.518,0.00414841,537.518,0.00499327,537.518,0.00540871,537.518,0.00564406,537.518,0.00533069,537.518,0.00586971,
536.014,0.0047043,536.014,0.00542866,536.014,0.0059769,536.014,0.00614054,536.014,0.00584352,536.014,0.00637104,
534.508,0.00501317,534.508,0.00593148,534.508,0.00618552,534.508,0.00635575,534.508,0.0060621,534.508,0.0066312,
533.003,0.00590935,533.003,0.00677011,533.003,0.00708055,533.003,0.00720624,533.003,0.00694381,533.003,0.00767115,
531.496,0.00653262,531.496,0.00738298,531.496,0.00779597,531.496,0.00778264,531.496,0.00775866,531.496,0.0083402,
529.989,0.00720131,529.989,0.00833935,529.989,0.00859761,529.989,0.00866188,529.989,0.00877611,529.989,0.00920545,
528.482,0.00843581,528.482,0.00950597,528.482,0.00998437,528.482,0.00990536,528.482,0.00979584,528.482,0.0102648,
526.974,0.00963757,526.974,0.0105349,526.974,0.0110077,526.974,0.0111856,526.974,0.0110173,526.974,0.0114104,
525.466,0.0116583,525.466,0.0119339,525.466,0.0124837,525.466,0.0125282,525.466,0.0124369,525.466,0.012802,
523.957,0.0126899,523.957,0.0133091,523.957,0.01354,523.957,0.0137872,523.957,0.0138556,523.957,0.014075,
522.447,0.0138913,522.447,0.0146994,522.447,0.0147409,522.447,0.0149905,522.447,0.0151823,522.447,0.0153243,
520.937,0.0147803,520.937,0.0160198,520.937,0.0162542,520.937,0.0165154,520.937,0.0161554,520.937,0.0167328,
519.427,0.0162539,519.427,0.0174031,519.427,0.0174924,519.427,0.0175236,519.427,0.0174631,519.427,0.0179605,
518.067,0.0176726,518.067,0.0189616,518.067,0.0189869,518.067,0.0188649,518.067,0.0192921,518.067,0.0193401,
516.556,0.0188936,516.556,0.0200463,516.556,0.0201953,516.556,0.0203743,516.556,0.0200858,516.556,0.0208775,
515.044,0.0199627,515.044,0.0210668,515.044,0.0212005,515.044,0.0216205,515.044,0.0213583,515.044,0.0220501,
513.532,0.0209047,513.532,0.021928,513.532,0.0222037,513.532,0.0223106,513.532,0.0221271,513.532,0.0230671,
512.019,0.0221898,512.019,0.0233068,512.019,0.023429,512.019,0.0236399,512.019,0.0232663,512.019,0.0243382,
510.505,0.0232644,510.505,0.0243951,510.505,0.0244781,510.505,0.0246018,510.505,0.0243853,510.505,0.0253095,
508.992,0.0238261,508.992,0.0250494,508.992,0.0252193,508.992,0.0254656,508.992,0.0252334,508.992,0.0259196,
507.477,0.0248403,507.477,0.0256277,507.477,0.025822,507.477,0.026263,507.477,0.0259498,507.477,0.0264917,
505.962,0.0250479,505.962,0.0261335,505.962,0.026529,505.962,0.0268355,505.962,0.0265668,505.962,0.0271354,
504.447,0.0257242,504.447,0.0267745,504.447,0.0268806,504.447,0.027497,504.447,0.0270172,504.447,0.0277931,
502.931,0.0262086,502.931,0.0269503,502.931,0.0273002,502.931,0.0279082,502.931,0.0273906,502.931,0.0280955,
501.567,0.0263907,501.567,0.0274647,501.567,0.0276173,501.567,0.0280021,501.567,0.0276793,501.567,0.0284593,
500.05,0.0265302,500.05,0.0275979,500.05,0.027764,500.05,0.0282384,500.05,0.0278576,500.05,0.0284709,
498.533,0.0265608,498.533,0.0276461,498.533,0.0281195,498.533,0.0280813,498.533,0.0278055,498.533,0.0289196,
497.015,0.0267008,497.015,0.0279587,497.015,0.0280921,497.015,0.0280647,497.015,0.0280378,497.015,0.0288719,
495.497,0.0266641,495.497,0.0276613,495.497,0.0280733,495.497,0.0281694,495.497,0.0280276,495.497,0.0289295,
493.978,0.026316,493.978,0.0272573,493.978,0.0275998,493.978,0.0278549,493.978,0.0274834,493.978,0.0283445,
492.459,0.0260262,492.459,0.027131,492.459,0.0273538,492.459,0.0275118,492.459,0.0275803,492.459,0.0281621,
490.94,0.0262321,490.94,0.0274902,490.94,0.0276003,490.94,0.0278223,490.94,0.0276682,490.94,0.0283126,
489.572,0.025572,489.572,0.0265738,489.572,0.0269519,489.572,0.027036,489.572,0.0270479,489.572,0.0276004,
488.051,0.0250281,488.051,0.0262879,488.051,0.0266419,488.051,0.026494,488.051,0.0265407,488.051,0.0268634,
486.53,0.0249284,486.53,0.0260203,486.53,0.0263795,486.53,0.0265163,486.53,0.0262814,486.53,0.0268106,
485.009,0.0243028,485.009,0.0253086,485.009,0.025563,485.009,0.0258,485.009,0.0256343,485.009,0.0260928,
483.487,0.0238029,483.487,0.0254365,483.487,0.0254182,483.487,0.0262172,483.487,0.0254601,483.487,0.0259971,
481.965,0.0237353,481.965,0.0249868,481.965,0.0252962,481.965,0.025411,481.965,0.0252759,481.965,0.0256194,
480.442,0.0231071,480.442,0.0241372,480.442,0.0245841,480.442,0.0250242,480.442,0.0245379,480.442,0.0251816,
479.071,0.0229491,479.071,0.0239998,479.071,0.0246053,479.071,0.0244791,479.071,0.0243699,479.071,0.0249058,
477.547,0.0225876,477.547,0.0238729,477.547,0.0241603,477.547,0.0240935,477.547,0.0240664,477.547,0.0245967,
476.023,0.0227547,476.023,0.0239567,476.023,0.0244938,476.023,0.0245704,476.023,0.0240741,476.023,0.0252238,
474.499,0.0230306,474.499,0.0243266,474.499,0.0247233,474.499,0.0249658,474.499,0.0245988,474.499,0.0254499,
472.973,0.0237385,472.973,0.0250506,472.973,0.0254685,472.973,0.0255777,472.973,0.0253384,472.973,0.0260669,
471.448,0.024394,471.448,0.0256626,471.448,0.0262932,471.448,0.0264448,471.448,0.026081,471.448,0.0266591,
470.075,0.0254274,470.075,0.0268313,470.075,0.0272001,470.075,0.0271933,470.075,0.0271015,470.075,0.0279425,
468.548,0.0264584,468.548,0.0279515,468.548,0.0282131,468.548,0.0286281,468.548,0.02812,468.548,0.0289029,
467.021,0.028115,467.021,0.0290632,467.021,0.0296356,467.021,0.0297431,467.021,0.029352,467.021,0.0302615,
465.494,0.029167,465.494,0.0305208,465.494,0.0308246,465.494,0.0309636,465.494,0.0305686,465.494,0.0319244,
463.966,0.0304565,463.966,0.0316476,463.966,0.032303,463.966,0.0323278,463.966,0.0320316,463.966,0.03308,
462.438,0.0315138,462.438,0.032867,462.438,0.0332997,462.438,0.0333306,462.438,0.0330514,462.438,0.0338092,
461.062,0.0324792,461.062,0.033688,461.062,0.0341462,461.062,0.0341929,461.062,0.0340312,461.062,0.0348174,
459.533,0.0337086,459.533,0.0351363,459.533,0.035691,459.533,0.0357837,459.533,0.0354074,459.533,0.0363438,
458.004,0.0348047,458.004,0.0361621,458.004,0.0365096,458.004,0.0365721,458.004,0.0361581,458.004,0.0370242,
456.474,0.0354247,456.474,0.0367838,456.474,0.0371139,456.474,0.0370688,456.474,0.0371336,456.474,0.0377286,
454.944,0.03593,454.944,0.0376089,454.944,0.0378992,454.944,0.0379328,454.944,0.0377886,454.944,0.0385431,
453.566,0.0365525,453.566,0.0381263,453.566,0.0383261,453.566,0.0384548,453.566,0.0380994,453.566,0.0393583,
452.035,0.0370468,452.035,0.0385902,452.035,0.0390945,452.035,0.0391454,452.035,0.0390316,452.035,0.0399426,
450.503,0.0375416,450.503,0.0387201,450.503,0.0393403,450.503,0.039552,450.503,0.039309,450.503,0.0399313,
448.971,0.0377751,448.971,0.0392295,448.971,0.0395269,448.971,0.0397708,448.971,0.039707,448.971,0.0403437,
447.439,0.0381362,447.439,0.0397053,447.439,0.0399422,447.439,0.0400675,447.439,0.0398565,447.439,0.0405346,
446.059,0.0384493,446.059,0.0399228,446.059,0.0402478,446.059,0.0405985,446.059,0.040322,446.059,0.0409025,
444.526,0.038848,444.526,0.040134,444.526,0.0406275,444.526,0.0406913,444.526,0.0405097,444.526,0.0411446,
442.992,0.0388924,442.992,0.0400807,442.992,0.040637,442.992,0.0408378,442.992,0.040501,442.992,0.0411085,
441.458,0.0387582,441.458,0.0402337,441.458,0.0405759,441.458,0.0406106,441.458,0.0405506,441.458,0.04139,
439.923,0.0392772,439.923,0.0405196,439.923,0.0411443,439.923,0.0411701,439.923,0.0407895,439.923,0.0415914,
438.542,0.0391135,438.542,0.0404179,438.542,0.0408778,438.542,0.04088,438.542,0.0409566,438.542,0.0416669,
437.007,0.0387411,437.007,0.0402124,437.007,0.0407173,437.007,0.0406579,437.007,0.0406085,437.007,0.0411941,
435.471,0.0385795,435.471,0.0397856,435.471,0.040206,435.471,0.0402568,435.471,0.040154,435.471,0.0407033,
433.935,0.0382523,433.935,0.0396199,433.935,0.0401583,433.935,0.0404563,433.935,0.0400615,433.935,0.0408373,
432.552,0.0382369,432.552,0.0396744,432.552,0.0400767,432.552,0.0401457,432.552,0.0402277,432.552,0.0409754,
431.015,0.0380623,431.015,0.0394513,431.015,0.0399089,431.015,0.0400318,431.015,0.039887,431.015,0.0406319,
429.477,0.0382677,429.477,0.0393149,429.477,0.0398472,429.477,0.0397572,429.477,0.0398751,429.477,0.0404124,
427.939,0.0379184,427.939,0.0392041,427.939,0.0395448,427.939,0.0394966,427.939,0.0395011,427.939,0.0402252,
426.555,0.0375956,426.555,0.0391919,426.555,0.039413,426.555,0.0394641,426.555,0.039157,426.555,0.0402957,
425.016,0.0372623,425.016,0.0386328,425.016,0.0391435,425.016,0.039041,425.016,0.0391848,425.016,0.040079,
423.477,0.037481,423.477,0.0389356,423.477,0.0392747,423.477,0.0392308,423.477,0.0393961,423.477,0.0401449,
421.938,0.0374081,421.938,0.0387688,421.938,0.0393463,421.938,0.0392193,421.938,0.0391933,421.938,0.0398753,
420.552,0.0371084,420.552,0.0386388,420.552,0.0389831,420.552,0.0394236,420.552,0.0390676,420.552,0.0400486,
419.012,0.0368738,419.012,0.038428,419.012,0.0389738,419.012,0.0390564,419.012,0.0389323,419.012,0.039536,
417.471,0.0366766,417.471,0.0383826,417.471,0.0387736,417.471,0.0387813,417.471,0.0385187,417.471,0.0393827,
415.93,0.0364956,415.93,0.0379363,415.93,0.0384228,415.93,0.0383914,415.93,0.0382063,415.93,0.0391156,
414.543,0.0361016,414.543,0.037696,414.543,0.0382923,414.543,0.0380997,414.543,0.0382439,414.543,0.0389597,
413.001,0.0356598,413.001,0.0371698,413.001,0.0378044,413.001,0.0379097,413.001,0.0376937,413.001,0.0386205,
411.459,0.0352937,411.459,0.0368385,411.459,0.0374423,411.459,0.0373306,411.459,0.0371252,411.459,0.0381309,
410.071,0.0351459,410.071,0.0366076,410.071,0.0372912,410.071,0.0372625,410.071,0.0369975,410.071,0.0382587,
408.528,0.0345561,408.528,0.0361907,408.528,0.0368302,408.528,0.0369769,408.528,0.0365649,408.528,0.0377136,
406.985,0.0343181,406.985,0.0357373,406.985,0.0364,406.985,0.0364602,406.985,0.0362888,406.985,0.0370956,
405.441,0.0335508,405.441,0.0351816,405.441,0.0359273,405.441,0.0359867,405.441,0.0357099,405.441,0.0366816,
404.051,0.0333254,404.051,0.0348024,404.051,0.0355861,404.051,0.0354702,404.051,0.0353365,404.051,0.0363219,
402.507,0.0327378,402.507,0.0343086,402.507,0.0350134,402.507,0.035005,402.507,0.0348434,402.507,0.0358362,
400.962,0.0320784,400.962,0.0335352,400.962,0.0345052,400.962,0.0342317,400.962,0.0344493,400.962,0.0354756,
399.571,0.0318975,399.571,0.0334388,399.571,0.0342348,399.571,0.0342709,399.571,0.0340748,399.571,0.0352104,
398.026,0.0314147,398.026,0.032974,398.026,0.033482,398.026,0.0336116,398.026,0.0336715,398.026,0.0345257,
396.48,0.0313133,396.48,0.0325683,396.48,0.0335859,396.48,0.0334923,396.48,0.0333738,396.48,0.0344121,
394.933,0.0307713,394.933,0.0323985,394.933,0.0331117,394.933,0.0331942,394.933,0.0330561,394.933,0.0338931,
393.541,0.030817,393.541,0.0323606,393.541,0.0332381,393.541,0.0332431,393.541,0.0332228,393.541,0.0341738,
391.994,0.0305539,391.994,0.0322232,391.994,0.0329645,391.994,0.0331109,391.994,0.0331163,391.994,0.0338148,
390.447,0.030361,390.447,0.032054,390.447,0.0329467,390.447,0.03295286,390.447,0.0328942,390.447,0.0337698,
389.054,0.0306902,389.054,0.0320346,389.054,0.0327966,389.054,0.0328088,389.054,0.0325748,389.054,0.0334714,
387.506,0.0305285,387.506,0.0323363,387.506,0.0330703,387.506,0.033143,387.506,0.0331246,387.506,0.0340678,
385.957,0.0308349,385.957,0.0324693,385.957,0.0332007,385.957,0.0331771,385.957,0.0335055,385.957,0.0341109,
384.563,0.030995,384.563,0.032837,384.563,0.0335091,384.563,0.0335237,384.563,0.0334715,384.563,0.0345613,
383.014,0.0315076,383.014,0.0332174,383.014,0.0341268,383.014,0.0340749,383.014,0.0340551,383.014,0.035441,
381.464,0.0317216,381.464,0.0337492,381.464,0.0344739,381.464,0.0345196,381.464,0.0345955,381.464,0.0358711,
380.069,0.0324647,380.069,0.0344201,380.069,0.0351987,380.069,0.0350551,380.069,0.0349717,380.069,0.0363571,
378.519,0.0329625,378.519,0.0349331,378.519,0.0356232,378.519,0.0356502,378.519,0.0353747,378.519,0.0369577,
376.968,0.0343061,376.968,0.0365824,376.968,0.0373539,376.968,0.037145,376.968,0.0371942,376.968,0.0386229,
375.573,0.0351783,375.573,0.0371928,375.573,0.0380995,375.573,0.0379378,375.573,0.0378656,375.573,0.0392087,
374.021,0.0359832,374.021,0.0379321,374.021,0.0389381,374.021,0.0388522,374.021,0.0388194,374.021,0.0401296,
372.47,0.0371303,372.47,0.0388162,372.47,0.0396781,372.47,0.0397365,372.47,0.0397569,372.47,0.0409491,
371.073,0.0378427,371.073,0.040122,371.073,0.0408455,371.073,0.0409579,371.073,0.0410383,371.073,0.0423363,
369.52,0.0393116,369.52,0.0414501,369.52,0.0421774,369.52,0.0422218,369.52,0.0421021,369.52,0.0433797,
367.968,0.0400218,367.968,0.0423303,367.968,0.0431572,367.968,0.0430815,367.968,0.0431326,367.968,0.0444853,
366.57,0.0411633,366.57,0.0432284,366.57,0.0442848,366.57,0.0442539,366.57,0.0443685,366.57,0.0454828,
365.016,0.0420122,365.016,0.0441843,365.016,0.0451006,365.016,0.0451013,365.016,0.0451776,365.016,0.0465198,
363.463,0.0426867,363.463,0.0446654,363.463,0.045663,363.463,0.0456746,363.463,0.0458262,363.463,0.0471324,
362.064,0.0435067,362.064,0.0458046,362.064,0.0465792,362.064,0.0467144,362.064,0.0465611,362.064,0.0478647,
360.51,0.0440495,360.51,0.0466157,360.51,0.0474088,360.51,0.0474793,360.51,0.0476256,360.51,0.0491793,
358.955,0.0441411,358.955,0.0466991,358.955,0.047356,358.955,0.0474149,358.955,0.0475024,358.955,0.049043,
357.555,0.0449271,357.555,0.0474948,357.555,0.0481217,357.555,0.0483036,357.555,0.0484425,357.555,0.0500998,
356,0.0453818,356,0.0478382,356,0.0486588,356,0.0487501,356,0.0488082,356,0.0504837,
354.444,0.0456524,354.444,0.0480953,354.444,0.0489648,354.444,0.049228,354.444,0.0490943,354.444,0.050824,
353.044,0.0459568,353.044,0.048513,353.044,0.0492586,353.044,0.049551,353.044,0.0497993,353.044,0.0510941,
351.487,0.0458466,351.487,0.048412,351.487,0.0492457,351.487,0.0494429,351.487,0.0495938,351.487,0.0512946,
349.93,0.0462037,349.93,0.0487008,349.93,0.0495047,349.93,0.0497231,349.93,0.0498691,349.93,0.0514996,
348.529,0.0459813,348.529,0.0487171,348.529,0.0495471,348.529,0.0496074,348.529,0.0497984,348.529,0.051394,
346.972,0.0460147,346.972,0.0485332,346.972,0.0494078,346.972,0.0495802,346.972,0.0497294,346.972,0.0513585,
345.57,0.0461778,345.57,0.0487968,345.57,0.0495957,345.57,0.0498923,345.57,0.0500856,345.57,0.051662,
344.012,0.0463487,344.012,0.0491475,344.012,0.0499686,344.012,0.0501258,344.012,0.0502991,344.012,0.0522631,
342.453,0.0462863,342.453,0.0490813,342.453,0.0498652,342.453,0.0500606,342.453,0.0502243,342.453,0.0520899,
341.05,0.0460627,341.05,0.0489365,341.05,0.0499233,341.05,0.0499068,341.05,0.0502527,341.05,0.0522008,
339.491,0.0459145,339.491,0.0487335,339.491,0.0494942,339.491,0.0497454,339.491,0.0500533,339.491,0.0519771,
337.932,0.0460716,337.932,0.048826,337.932,0.0496065,337.932,0.0499208,337.932,0.0498784,337.932,0.0519952,
336.529,0.0456569,336.529,0.0485553,336.529,0.0493278,336.529,0.0494618,336.529,0.0495741,336.529,0.0518604,
334.969,0.0453908,334.969,0.0483817,334.969,0.0491969,334.969,0.0494439,334.969,0.0495551,334.969,0.0516766,
333.564,0.0453051,333.564,0.0481582,333.564,0.0491863,333.564,0.049243,333.564,0.0495919,333.564,0.0515819,
332.004,0.0451309,332.004,0.0479515,332.004,0.0491066,332.004,0.0491621,332.004,0.0495081,332.004,0.0515745,
330.443,0.0448403,330.443,0.0475526,330.443,0.048731,330.443,0.048796,330.443,0.0492143,330.443,0.0513336,
329.038,0.0446506,329.038,0.0475349,329.038,0.0485711,329.038,0.0487314,329.038,0.049114,329.038,0.0512311,
327.476,0.0443197,327.476,0.0471856,327.476,0.0483467,327.476,0.0483365,327.476,0.0489029,327.476,0.0510385,
326.071,0.0444959,326.071,0.0472866,326.071,0.0483242,326.071,0.0485233,326.071,0.0489745,326.071,0.0511228,
324.509,0.0444247,324.509,0.0471636,324.509,0.0483076,324.509,0.0484494,324.509,0.049139,324.509,0.051497,
322.946,0.0448756,322.946,0.0476752,322.946,0.0486,322.946,0.0487785,322.946,0.0494372,322.946,0.0518934,
321.54,0.0450549,321.54,0.04756,321.54,0.0486308,321.54,0.0487533,321.54,0.0494462,321.54,0.0519857,
319.977,0.0455335,319.977,0.0475303,319.977,0.0486076,319.977,0.0488331,319.977,0.0495371,319.977,0.0521899,
318.57,0.0462782,318.57,0.047933,318.57,0.049108,318.57,0.0493426,318.57,0.0500784,318.57,0.052887,
317.007,0.0471742,317.007,0.0482369,317.007,0.0492591,317.007,0.0496099,317.007,0.0502153,317.007,0.0533131,
315.443,0.0482786,315.443,0.048518,315.443,0.0496967,315.443,0.0499506,315.443,0.0507665,315.443,0.05394575,
314.035,0.049546,314.035,0.0492182,314.035,0.0503726,314.035,0.0505672,314.035,0.0514854,314.035,0.0547264,
312.471,0.0508886,312.471,0.0493802,312.471,0.0505428,312.471,0.0509358,312.471,0.051807,312.471,0.0552603,
311.062,0.0524529,311.062,0.0498859,311.062,0.0508846,311.062,0.0512635,311.062,0.0521823,311.062,0.0558032,
309.497,0.0543861,309.497,0.0502393,309.497,0.0514622,309.497,0.0518076,309.497,0.0528658,309.497,0.0567298,
307.932,0.0568598,307.932,0.0511864,307.932,0.0525194,307.932,0.0529936,307.932,0.0541092,307.932,0.0581612,
306.523,0.0587132,306.523,0.0514908,306.523,0.052654,306.523,0.0532311,306.523,0.0545583,306.523,0.0589042,
304.957,0.0610603,304.957,0.0519095,304.957,0.0532064,304.957,0.0538021,304.957,0.0553774,304.957,0.0600721,
303.548,0.0634917,303.548,0.0521062,303.548,0.05348,303.548,0.0541545,303.548,0.0560126,303.548,0.0612117,
301.981,0.0660895,301.981,0.0527535,301.981,0.0541613,301.981,0.0550121,301.981,0.057266,301.981,0.0629887,
300.571,0.0686172,300.571,0.0532274,300.571,0.0545676,300.571,0.055587,300.571,0.0581198,300.571,0.0647789,
299.004,0.0713734,299.004,0.0535893,299.004,0.0551146,299.004,0.05629,299.004,0.0594969,299.004,0.0675858,
297.437,0.074471,297.437,0.0546808,297.437,0.0562916,297.437,0.0579621,297.437,0.0622509,297.437,0.0722032,
296.026,0.0768314,296.026,0.0551077,296.026,0.0570528,296.026,0.059331,296.026,0.0654482,296.026,0.0785742,
294.458,0.0804026,294.458,0.0566433,294.458,0.0591615,294.458,0.0627159,294.458,0.0710618,294.458,0.0896982,
293.047,0.0832296,293.047,0.0578315,293.047,0.0611917,293.047,0.066096,293.047,0.0782871,293.047,0.104207,
291.479,0.0863588,291.479,0.0597418,291.479,0.0643873,291.479,0.0716552,291.479,0.0899187,291.479,0.127337,
290.067,0.0899743,290.067,0.0629518,290.067,0.0692086,290.067,0.0796506,290.067,0.105653,290.067,0.158241,
288.498,0.0948958,288.498,0.067443,288.498,0.077615,288.498,0.0952723,288.498,0.138311,288.498,0.220962,
286.929,0.100316,286.929,0.074427,286.929,0.0892678,286.929,0.116483,286.929,0.182735,286.929,0.30233,
285.517,0.106314,285.517,0.0830778,285.517,0.105491,285.517,0.144516,285.517,0.23898,285.517,0.407645,
283.947,0.114637,283.947,0.096098,283.947,0.129077,283.947,0.187383,283.947,0.329302,283.947,0.568858,
282.534,0.121816,282.534,0.108579,282.534,0.150094,282.534,0.227241,282.534,0.412841,282.534,0.71972,
280.964,0.131564,280.964,0.125105,280.964,0.179786,280.964,0.283081,280.964,0.523559,280.964,0.935696,
279.551,0.137254,279.551,0.134521,279.551,0.198009,279.551,0.316315,279.551,0.596957,279.551,1.06773,
277.98,0.140714,277.98,0.140179,277.98,0.209603,277.98,0.339319,277.98,0.646782,277.98,1.15931,
276.566,0.143213,276.566,0.144568,276.566,0.218594,276.566,0.356149,276.566,0.686498,276.566,1.23513,
274.995,0.144828,274.995,0.147534,274.995,0.225344,274.995,0.369554,274.995,0.717059,274.995,1.2919,
273.423,0.144005,273.423,0.146235,273.423,0.223827,273.423,0.367575,273.423,0.71511,273.423,1.28944,
272.009,0.141759,272.009,0.143037,272.009,0.21832,272.009,0.357283,272.009,0.694434,272.009,1.25163,
270.437,0.1386,270.437,0.138291,270.437,0.210518,270.437,0.344087,270.437,0.668896,270.437,1.2022,
269.022,0.135022,269.022,0.133213,269.022,0.202172,269.022,0.329653,269.022,0.639173,269.022,1.14878,
267.449,0.13099,267.449,0.127424,267.449,0.19193,267.449,0.311596,267.449,0.602403,267.449,1.08323,
266.034,0.126397,266.034,0.1213,266.034,0.181185,266.034,0.291286,266.034,0.55821,266.034,1.00476,
264.461,0.118692,264.461,0.111622,264.461,0.164937,264.461,0.262734,264.461,0.503272,264.461,0.899683,
263.045,0.112809,263.045,0.104552,263.045,0.152937,263.045,0.242251,263.045,0.461369,263.045,0.824141,
261.472,0.106606,261.472,0.0963484,261.472,0.13982,261.472,0.219851,261.472,0.414844,261.472,0.739939,
260.055,0.103269,260.055,0.0933605,260.055,0.133367,260.055,0.206425,260.055,0.386939,260.055,0.688973,
258.481,0.0976956,258.481,0.0874958,258.481,0.123216,258.481,0.188403,258.481,0.348496,258.481,0.619884,
257.065,0.0928719,257.065,0.0830004,257.065,0.115677,257.065,0.17502,257.065,0.320373,257.065,0.567771,
255.49,0.0888083,255.49,0.0798742,255.49,0.109884,255.49,0.164473,255.49,0.29799,255.49,0.527669,
254.073,0.0853879,254.073,0.0776445,254.073,0.106747,254.073,0.158555,254.073,0.28656,254.073,0.509322,
252.498,0.0829924,252.498,0.077812,252.498,0.106779,252.498,0.158187,252.498,0.28577,252.498,0.509463,
250.923,0.0814081,250.923,0.0797806,250.923,0.110355,250.923,0.164567,250.923,0.298958,250.923,0.536226,
249.508,0.0809704,249.508,0.0835462,249.508,0.117466,249.508,0.177823,249.508,0.326393,249.508,0.588053,
247.942,0.0813704,247.942,0.0897678,247.942,0.128714,247.942,0.198143,247.942,0.370466,247.942,0.670543,
246.533,0.0833678,246.533,0.0971926,246.533,0.141104,246.533,0.220495,246.533,0.411685,246.533,0.746904,
244.966,0.0855838,244.966,0.105771,244.966,0.157687,244.966,0.251284,244.966,0.479031,244.966,0.872107,
243.556,0.0886841,243.556,0.115869,243.556,0.175513,243.556,0.283487,243.556,0.544766,243.556,0.989776,
241.989,0.0923144,241.989,0.127111,241.989,0.1948,241.989,0.320588,241.989,0.618674,241.989,1.12545,
240.578,0.0980528,240.578,0.140876,240.578,0.218779,240.578,0.362525,240.578,0.705723,240.578,1.28301,
239.011,0.104093,239.011,0.154726,239.011,0.243445,239.011,0.408453,239.011,0.801669,239.011,1.45845,
237.443,0.112104,237.443,0.171285,237.443,0.271699,237.443,0.45931,237.443,0.902256,237.443,1.639,
236.032,0.120809,236.032,0.187076,236.032,0.299769,236.032,0.508118,236.032,1.00377,236.032,1.81718,
234.464,0.132796,234.464,0.211067,234.464,0.339611,234.464,0.580958,234.464,1.15373,234.464,2.07509,
233.052,0.145111,233.052,0.232648,233.052,0.378392,233.052,0.65104,233.052,1.30104,233.052,2.30819,
231.484,0.156217,231.484,0.251825,231.484,0.413885,231.484,0.713295,231.484,1.42965,231.484,2.57388,
230.072,0.166769,230.072,0.27081,230.072,0.446515,230.072,0.773619,230.072,1.56183,230.072,2.78964,
228.503,0.177569,228.503,0.289804,228.503,0.47877,228.503,0.830828,228.503,1.68305,228.503,2.94843,
226.934,0.188104,226.934,0.308648,226.934,0.513795,226.934,0.896225,226.934,1.81921,226.934,3.11345,
225.521,0.19852,225.521,0.327736,225.521,0.547202,225.521,0.959077,225.521,1.93845,225.521,3.16563,
223.952,0.210166,223.952,0.347506,223.952,0.579896,223.952,1.01573,223.952,2.05159,223.952,3.25781,
222.539,0.220666,222.539,0.365218,222.539,0.611526,222.539,1.06804,222.539,2.15395,222.539,3.22092,
220.969,0.233384,220.969,0.386029,220.969,0.646951,220.969,1.13236,220.969,2.27246,220.969,3.20928,
219.555,0.248683,219.555,0.413399,219.555,0.696747,219.555,1.21472,219.555,2.42166,219.555,3.43424,
217.985,0.274333,217.985,0.459672,217.985,0.77713,217.985,1.35362,217.985,2.61356,217.985,3.23718,
216.572,0.301961,216.572,0.510972,216.572,0.862047,216.572,1.50605,216.572,2.80802,216.572,3.26671,
215.001,0.349345,215.001,0.601353,215.001,1.01362,215.001,1.76769,215.001,3.05141,215.001,3.31324,
213.43,0.408229,213.43,0.712304,213.43,1.2007,213.43,2.0764,213.43,3.14313,213.43,3.29219,
212.016,0.47461,212.016,0.829604,212.016,1.41083,212.016,2.39263,212.016,3.25097,212.016,3.33208,
210.444,0.56535,210.444,1.00238,210.444,1.69798,210.444,2.73216,210.444,3.20759,210.444,3.27104,
209.03,0.622058,209.03,1.10748,209.03,1.87043,209.03,2.86925,209.03,3.17187,209.03,3.25153,
207.458,0.679098,207.458,1.20857,207.458,2.05312,207.458,2.98283,207.458,3.17791,207.458,3.32236,
206.043,0.731228,206.043,1.29503,206.043,2.1961,206.043,3.06553,206.043,3.23925,206.043,3.32923,
204.471,0.786558,204.471,1.39007,204.471,2.34705,204.471,3.15195,204.471,3.29852,204.471,3.35885,
203.056,0.842636,203.056,1.4727,203.056,2.45132,203.056,3.07612,203.056,3.13129,203.056,3.24495,
201.483,0.905136,201.483,1.56705,201.483,2.54807,201.483,3.06545,201.483,3.14726,201.483,3.3044,
200.068,0.985493,200.068,1.66224,200.068,2.62162,200.068,3.16226,200.068,3.17509,200.068,3.22677,

is_2_7_7uM,
is_2_7_7uM
Collection Time: 4/20/2024 5:08:45 PM
Operator Name  :
Scan Software Version: 3.00(339)
Parameter List :
Instrument                        Cary 50
Instrument Version                3.00
Start (nm)                        800.0
Stop (nm)                         200.0
X Mode                            Nanometers
Y Mode                            Abs
UV-Vis Scan Rate (nm/min)         300.00
UV-Vis Data Interval (nm)         0.50
UV-Vis Ave. Time (sec)            0.1000
Beam Mode                         Dual Beam
Baseline Correction               Off
Cycle Mode                        Off
Comments
Method Log     :
Method Name    :
Date/Time stamp: 4/20/2024 5:05:46 PM
Method Modifications:
UVVIS SAT Changed: 4/20/2024 5:05:56 PM, Old:0.0125, New:0.1000
Common SAT Changed: 4/20/2024 5:05:56 PM, Old:0.0125, New:0.1000
Common Interval nm Changed: 4/20/2024 5:06:01 PM, Old:     5.00, New:     0.50
End Method Modifications
<Current Wavelength> , 200.5

is_2_7_15uM,
is_2_7_15uM
Collection Time: 4/20/2024 5:12:48 PM
Operator Name  :
Scan Software Version: 3.00(339)
Parameter List :
Instrument                        Cary 50
Instrument Version                3.00
Start (nm)                        800.0
Stop (nm)                         200.0
X Mode                            Nanometers
Y Mode                            Abs
UV-Vis Scan Rate (nm/min)         300.00
UV-Vis Data Interval (nm)         0.50
UV-Vis Ave. Time (sec)            0.1000
Beam Mode                         Dual Beam
Baseline Correction               Off
Cycle Mode                        Off
Comments
Method Log     :
Method Name    :
Date/Time stamp: 4/20/2024 5:05:46 PM
Method Modifications:
UVVIS SAT Changed: 4/20/2024 5:05:56 PM, Old:0.0125, New:0.1000
Common SAT Changed: 4/20/2024 5:05:56 PM, Old:0.0125, New:0.1000
Common Interval nm Changed: 4/20/2024 5:06:01 PM, Old:     5.00, New:     0.50
End Method Modifications
<Current Wavelength> , 200.5

is_2_7_31uM,
is_2_7_31uM
Collection Time: 4/20/2024 5:18:22 PM
Operator Name  :
Scan Software Version: 3.00(339)
Parameter List :
Instrument                        Cary 50
Instrument Version                3.00
Start (nm)                        800.0
Stop (nm)                         200.0
X Mode                            Nanometers
Y Mode                            Abs
UV-Vis Scan Rate (nm/min)         300.00
UV-Vis Data Interval (nm)         0.50
UV-Vis Ave. Time (sec)            0.1000
Beam Mode                         Dual Beam
Baseline Correction               Off
Cycle Mode                        Off
Comments
Method Log     :
Method Name    :
Date/Time stamp: 4/20/2024 5:05:46 PM
Method Modifications:
UVVIS SAT Changed: 4/20/2024 5:05:56 PM, Old:0.0125, New:0.1000
Common SAT Changed: 4/20/2024 5:05:56 PM, Old:0.0125, New:0.1000
Common Interval nm Changed: 4/20/2024 5:06:01 PM, Old:     5.00, New:     0.50
End Method Modifications
<Current Wavelength> , 200.5

is_2_7_62uM,
is_2_7_62uM
Collection Time: 4/20/2024 5:21:37 PM
Operator Name  :
Scan Software Version: 3.00(339)
Parameter List :
Instrument                        Cary 50
Instrument Version                3.00
Start (nm)                        800.0
Stop (nm)                         200.0
X Mode                            Nanometers
Y Mode                            Abs
UV-Vis Scan Rate (nm/min)         300.00
UV-Vis Data Interval (nm)         0.50
UV-Vis Ave. Time (sec)            0.1000
Beam Mode                         Dual Beam
Baseline Correction               Off
Cycle Mode                        Off
Comments
Method Log     :
Method Name    :
Date/Time stamp: 4/20/2024 5:05:46 PM
Method Modifications:
UVVIS SAT Changed: 4/20/2024 5:05:56 PM, Old:0.0125, New:0.1000
Common SAT Changed: 4/20/2024 5:05:56 PM, Old:0.0125, New:0.1000
Common Interval nm Changed: 4/20/2024 5:06:01 PM, Old:     5.00, New:     0.50
End Method Modifications
<Current Wavelength> , 200.5

is_2_7_125uM,
is_2_7_125uM
Collection Time: 4/20/2024 5:25:01 PM
Operator Name  :
Scan Software Version: 3.00(339)
Parameter List :
Instrument                        Cary 50
Instrument Version                3.00
Start (nm)                        800.0
Stop (nm)                         200.0
X Mode                            Nanometers
Y Mode                            Abs
UV-Vis Scan Rate (nm/min)         300.00
UV-Vis Data Interval (nm)         0.50
UV-Vis Ave. Time (sec)            0.1000
Beam Mode                         Dual Beam
Baseline Correction               Off
Cycle Mode                        Off
Comments
Method Log     :
Method Name    :
Date/Time stamp: 4/20/2024 5:05:46 PM
Method Modifications:
UVVIS SAT Changed: 4/20/2024 5:05:56 PM, Old:0.0125, New:0.1000
Common SAT Changed: 4/20/2024 5:05:56 PM, Old:0.0125, New:0.1000
Common Interval nm Changed: 4/20/2024 5:06:01 PM, Old:     5.00, New:     0.50
End Method Modifications
<Current Wavelength> , 200.5

is_2_7_250uM,
is_2_7_250uM
Collection Time: 4/20/2024 5:28:25 PM
Operator Name  :
Scan Software Version: 3.00(339)
Parameter List :
Instrument                        Cary 50
Instrument Version                3.00
Start (nm)                        800.0
Stop (nm)                         200.0
X Mode                            Nanometers
Y Mode                            Abs
UV-Vis Scan Rate (nm/min)         300.00
UV-Vis Data Interval (nm)         0.50
UV-Vis Ave. Time (sec)            0.1000
Beam Mode                         Dual Beam
Baseline Correction               Off
Cycle Mode                        Off
Comments
Method Log     :
Method Name    :
Date/Time stamp: 4/20/2024 5:05:46 PM
Method Modifications:
UVVIS SAT Changed: 4/20/2024 5:05:56 PM, Old:0.0125, New:0.1000
Common SAT Changed: 4/20/2024 5:05:56 PM, Old:0.0125, New:0.1000
Common Interval nm Changed: 4/20/2024 5:06:01 PM, Old:     5.00, New:     0.50
End Method Modifications
<Current Wavelength> , 200.5