File: silicates_UV_vis/Allylsilicates_plot/mbg_3_138_allylcatecholsilicate.csv
mbg_3_138_250uM,,mbg_3_138_7uM,,mbg_3_138_15uM,,mbg_3_138_31uM,,mbg_3_138_62uM,,mbg_3_138_125uM,,mbg_3_138_250uM,,
Wavelength (nm),Abs,Wavelength (nm),Abs,Wavelength (nm),Abs,Wavelength (nm),Abs,Wavelength (nm),Abs,Wavelength (nm),Abs,Wavelength (nm),Abs,
799.953,0.000936658,799.953,-0.000297276,799.953,-0.000202019,799.953,0.000261087,799.953,0.000135172,799.953,-0.000164862,799.953,0.000936658,
798.01,0.000442176,798.01,-0.000496726,798.01,-0.000490314,798.01,-0.000442838,798.01,5.26553e-05,798.01,-0.000638448,798.01,0.000442176,
796.065,0.000227908,796.065,-0.000898917,796.065,-0.000382012,796.065,-0.000595383,796.065,-0.00097367,796.065,-0.000353769,796.065,0.000227908,
793.979,0.000374887,793.979,-0.00125314,793.979,-0.00113388,793.979,-0.000795885,793.979,-0.000704045,793.979,-0.000905633,793.979,0.000374887,
792.031,-0.000629608,792.031,-0.00138275,792.031,-0.00166268,792.031,-0.00110315,792.031,-0.0016161,792.031,-0.00131219,792.031,-0.000629608,
789.942,-0.00055309,789.942,-0.00156385,789.942,-0.00125314,789.942,-0.00143549,789.942,-0.00127942,789.942,-0.00163736,789.942,-0.00055309,
787.991,-0.000785705,787.991,-0.00131297,787.991,-0.00192362,787.991,-0.00180526,787.991,-0.00207966,787.991,-0.00209043,787.991,-0.000785705,
786.038,-0.000465439,786.038,-0.00202118,786.038,-0.0017241,786.038,-0.00226753,786.038,-0.00239359,786.038,-0.00197913,786.038,-0.000465439,
783.945,-0.00157907,783.945,-0.00223606,783.945,-0.00216833,783.945,-0.00211114,783.945,-0.00184764,783.945,-0.00235137,783.945,-0.00157907,
781.989,-0.00124643,781.989,-0.00208919,781.989,-0.00220825,781.989,-0.00251256,781.989,-0.00236527,781.989,-0.00254566,781.989,-0.00124643,
780.032,-0.00164576,780.032,-0.00276682,780.032,-0.00246412,780.032,-0.00256352,780.032,-0.00260196,780.032,-0.00187021,780.032,-0.00164576,
777.933,-0.00184856,777.933,-0.00264704,777.933,-0.00269618,777.933,-0.00330396,777.933,-0.00293387,777.933,-0.00261004,777.933,-0.00184856,
775.973,-0.00170703,775.973,-0.00337327,775.973,-0.00251004,775.973,-0.00299511,775.973,-0.00287257,775.973,-0.00311551,775.973,-0.00170703,
774.011,-0.00228144,774.011,-0.00321275,774.011,-0.00277711,774.011,-0.00330597,774.011,-0.00308015,774.011,-0.0033407,774.011,-0.00228144,
772.048,-0.00206766,772.048,-0.00309547,772.048,-0.00296123,772.048,-0.00319415,772.048,-0.00286172,772.048,-0.00302103,772.048,-0.00206766,
769.943,-0.00218491,769.943,-0.00335477,769.943,-0.00319035,769.943,-0.00287267,769.943,-0.00317729,769.943,-0.00301974,769.943,-0.00218491,
767.977,-0.0023369,767.977,-0.00299311,767.977,-0.00287854,767.977,-0.00360042,767.977,-0.00338344,767.977,-0.00338329,767.977,-0.0023369,
766.009,-0.00218831,766.009,-0.00284963,766.009,-0.00267405,766.009,-0.00282253,766.009,-0.00280607,766.009,-0.00290559,766.009,-0.00218831,
764.04,-0.0021013,764.04,-0.00297912,764.04,-0.00267225,764.04,-0.00297701,764.04,-0.00280041,764.04,-0.00300853,764.04,-0.0021013,
762.07,-0.00168847,762.07,-0.00319086,762.07,-0.00267858,762.07,-0.00294143,762.07,-0.00308904,762.07,-0.00299522,762.07,-0.00168847,
759.957,-0.00182676,759.957,-0.00321311,759.957,-0.00300493,759.957,-0.00293387,759.957,-0.00337954,759.957,-0.00287375,759.957,-0.00182676,
757.983,-0.00224441,757.983,-0.00352587,757.983,-0.0029005,757.983,-0.00338503,757.983,-0.00343701,757.983,-0.00340989,757.983,-0.00224441,
756.008,-0.00276527,756.008,-0.00325124,756.008,-0.00326363,756.008,-0.00362183,756.008,-0.00355632,756.008,-0.00356417,756.008,-0.00276527,
754.032,-0.00278955,754.032,-0.00394778,754.032,-0.00365988,754.032,-0.00339597,754.032,-0.00388586,754.032,-0.00375222,754.032,-0.00278955,
752.054,-0.00333494,752.054,-0.00417823,752.054,-0.00381289,752.054,-0.00437278,752.054,-0.00436817,752.054,-0.00424088,752.054,-0.00333494,
749.933,-0.00416782,749.933,-0.00533793,749.933,-0.0042356,749.933,-0.00507607,749.933,-0.00489463,749.933,-0.00445775,749.933,-0.00416782,
747.953,-0.00505642,747.953,-0.00624925,747.953,-0.00583003,747.953,-0.00620011,747.953,-0.00643523,747.953,-0.00604993,747.953,-0.00505642,
745.971,-0.0056374,745.971,-0.00699099,745.971,-0.00668577,745.971,-0.00685372,745.971,-0.00704387,745.971,-0.0067186,745.971,-0.0056374,
743.987,-0.00643706,743.987,-0.00767474,743.987,-0.00783601,743.987,-0.00740335,743.987,-0.00776314,743.987,-0.00753667,743.987,-0.00643706,
742.002,-0.00757667,742.002,-0.00881121,742.002,-0.00826494,742.002,-0.00848422,742.002,-0.00876971,742.002,-0.00826448,742.002,-0.00757667,
740.016,-0.00855138,740.016,-0.00998245,740.016,-0.00924009,740.016,-0.00951632,740.016,-0.00984846,740.016,-0.00948841,740.016,-0.00855138,
738.028,-0.00967473,738.028,-0.0107961,738.028,-0.0106956,738.028,-0.0107575,738.028,-0.0111033,738.028,-0.0107665,738.028,-0.00967473,
736.039,-0.0111133,736.039,-0.012149,736.039,-0.0118703,736.039,-0.0118795,736.039,-0.0118237,736.039,-0.0120484,736.039,-0.0111133,
734.048,-0.0125211,734.048,-0.013462,734.048,-0.0130974,734.048,-0.0133202,734.048,-0.013537,734.048,-0.0132415,734.048,-0.0125211,
732.056,-0.0133683,732.056,-0.0148521,732.056,-0.0146202,732.056,-0.0145482,732.056,-0.0148471,732.056,-0.0146179,732.056,-0.0133683,
730.063,-0.0144728,730.063,-0.0159588,730.063,-0.0154301,730.063,-0.0153829,730.063,-0.0157425,730.063,-0.015645,730.063,-0.0144728,
728.068,-0.0154363,728.068,-0.0172228,728.068,-0.0169182,728.068,-0.0166595,728.068,-0.0167035,728.068,-0.0168212,728.068,-0.0154363,
725.93,-0.016532,725.93,-0.0180243,725.93,-0.0176812,725.93,-0.0177189,725.93,-0.0180201,725.93,-0.0178679,725.93,-0.016532,
723.932,-0.0174347,723.932,-0.0188148,723.932,-0.0186823,723.932,-0.0185195,723.932,-0.0186291,723.932,-0.0188022,723.932,-0.0174347,
721.933,-0.0180722,721.933,-0.0194471,721.933,-0.0192366,721.933,-0.0192267,721.933,-0.0193694,721.933,-0.0192631,721.933,-0.0180722,
719.933,-0.0182462,719.933,-0.0192637,719.933,-0.0192175,719.933,-0.0190125,719.933,-0.0195712,719.933,-0.0193308,719.933,-0.0182462,
717.931,-0.0184078,717.931,-0.0194605,717.931,-0.0193498,717.931,-0.0194016,717.931,-0.0194202,717.931,-0.019462,717.931,-0.0184078,
715.928,-0.0181052,715.928,-0.0193083,715.928,-0.0191116,715.928,-0.0192248,715.928,-0.0188533,715.928,-0.0191016,715.928,-0.0181052,
714.067,-0.0170562,714.067,-0.0182298,714.067,-0.0181996,714.067,-0.0182284,714.067,-0.0180952,714.067,-0.018301,714.067,-0.0170562,
712.062,-0.0160131,712.062,-0.0172632,712.062,-0.0171872,712.062,-0.0171685,712.062,-0.0173029,712.062,-0.0169058,712.062,-0.0160131,
710.055,-0.0140489,710.055,-0.0155799,710.055,-0.0155016,710.055,-0.0151479,710.055,-0.0154376,710.055,-0.0153416,710.055,-0.0140489,
708.047,-0.0122594,708.047,-0.0134238,708.047,-0.0129833,708.047,-0.012934,708.047,-0.0131478,708.047,-0.0132549,708.047,-0.0122594,
706.037,-0.00988626,706.037,-0.0112123,706.037,-0.0109748,706.037,-0.0112294,706.037,-0.0112288,706.037,-0.010723,706.037,-0.00988626,
704.026,-0.0075034,704.026,-0.00850219,704.026,-0.00811135,704.026,-0.00860894,704.026,-0.00837805,704.026,-0.00832843,704.026,-0.0075034,
702.014,-0.00481994,702.014,-0.00550303,702.014,-0.00560654,702.014,-0.0056394,702.014,-0.00551878,702.014,-0.00549204,702.014,-0.00481994,
700,-0.00199412,700,-0.00325119,700,-0.00258066,700,-0.00303223,700,-0.00285112,700,-0.00300133,700,-0.00199412,
697.985,0.000575567,697.985,-0.000580028,697.985,-0.000521651,697.985,-0.000396185,697.985,-0.000657368,697.985,-0.000386771,697.985,0.000575567,
695.969,0.00359066,695.969,0.00257184,695.969,0.00305947,695.969,0.00228432,695.969,0.00252742,695.969,0.00234928,695.969,0.00359066,
693.952,0.00534675,693.952,0.00374445,693.952,0.00407636,693.952,0.00407241,693.952,0.0042716,693.952,0.00408971,693.952,0.00534675,
691.933,0.00727888,691.933,0.0057591,691.933,0.00597824,691.933,0.00619476,691.933,0.00598724,691.933,0.00622648,691.933,0.00727888,
690.057,0.00855637,690.057,0.00738293,690.057,0.0075737,690.057,0.0076301,690.057,0.00730352,690.057,0.00721519,690.057,0.00855637,
688.036,0.00967703,688.036,0.00835392,688.036,0.00901906,688.036,0.00872851,688.036,0.00863624,688.036,0.0090569,688.036,0.00967703,
686.013,0.0112613,686.013,0.0102148,686.013,0.0102839,686.013,0.0101426,686.013,0.0100985,686.013,0.0105042,686.013,0.0112613,
683.989,0.0117642,683.989,0.0105189,683.989,0.0107728,683.989,0.0109193,683.989,0.0107191,683.989,0.0110565,683.989,0.0117642,
681.964,0.0124611,681.964,0.0111262,681.964,0.0114277,681.964,0.0118049,681.964,0.011411,681.964,0.0117058,681.964,0.0124611,
679.937,0.0134064,679.937,0.0118957,679.937,0.0122455,679.937,0.0121031,679.937,0.0121553,679.937,0.0123759,679.937,0.0134064,
678.054,0.0136888,678.054,0.012437,678.054,0.012634,678.054,0.0126232,678.054,0.0129232,678.054,0.0125159,678.054,0.0136888,
676.025,0.0140562,676.025,0.0127511,676.025,0.0130046,676.025,0.0129843,676.025,0.0131974,676.025,0.0134687,676.025,0.0140562,
673.995,0.0147883,673.995,0.0131184,673.995,0.0131408,673.995,0.0134606,673.995,0.0132805,673.995,0.0135888,673.995,0.0147883,
671.963,0.0149192,671.963,0.0135305,671.963,0.0135847,671.963,0.0136869,671.963,0.0138879,671.963,0.0137056,671.963,0.0149192,
669.931,0.0150902,669.931,0.0137601,669.931,0.0137691,669.931,0.0138281,669.931,0.01364,669.931,0.0140809,669.931,0.0150902,
668.042,0.0143939,668.042,0.0131143,668.042,0.0134135,668.042,0.0134966,668.042,0.0135377,668.042,0.0135324,668.042,0.0143939,
666.006,0.0130694,666.006,0.0116973,666.006,0.0123728,666.006,0.0118915,666.006,0.0119096,666.006,0.0123664,666.006,0.0130694,
663.97,0.0127594,663.97,0.0114525,663.97,0.0116416,663.97,0.0116463,663.97,0.0115398,663.97,0.0118676,663.97,0.0127594,
661.932,0.0125545,661.932,0.011123,661.932,0.0111684,661.932,0.0110573,661.932,0.0111952,661.932,0.0116025,661.932,0.0125545,
660.039,0.012133,660.039,0.0111065,660.039,0.0110852,660.039,0.0108401,660.039,0.0110513,660.039,0.0113259,660.039,0.012133,
657.999,0.0120998,657.999,0.0112022,657.999,0.0110985,657.999,0.0112559,657.999,0.0111497,657.999,0.0108027,657.999,0.0120998,
655.957,0.0124341,655.957,0.0110516,655.957,0.0110899,655.957,0.0107704,655.957,0.0107375,655.957,0.0110334,655.957,0.0124341,
654.061,0.011953,654.061,0.0110463,654.061,0.0108488,654.061,0.0111642,654.061,0.0109669,654.061,0.0108758,654.061,0.011953,
652.017,0.0119768,652.017,0.0109229,652.017,0.0109149,652.017,0.0109662,652.017,0.0110588,652.017,0.0111407,652.017,0.0119768,
649.972,0.0119174,649.972,0.0108102,649.972,0.0110399,649.972,0.0111108,649.972,0.0110733,649.972,0.0111233,649.972,0.0119174,
648.072,0.012676,648.072,0.0112774,648.072,0.0112689,648.072,0.0113332,648.072,0.0111297,648.072,0.0114858,648.072,0.012676,
646.024,0.0120125,646.024,0.0106824,646.024,0.0108992,646.024,0.011128,646.024,0.0112223,646.024,0.010784,646.024,0.0120125,
643.976,0.011777,643.976,0.0106815,643.976,0.0109863,643.976,0.01064,643.976,0.0110308,643.976,0.0110748,643.976,0.011777,
642.072,0.0119382,642.072,0.0109014,642.072,0.0110112,642.072,0.0112478,642.072,0.0107996,642.072,0.010768,642.072,0.0119382,
640.021,0.0119455,640.021,0.0109133,640.021,0.010965,640.021,0.010744,640.021,0.0109989,640.021,0.0108419,640.021,0.0119455,
637.969,0.0118307,637.969,0.0108201,637.969,0.0108285,637.969,0.0106994,637.969,0.0110726,637.969,0.0110456,637.969,0.0118307,
636.062,0.01202,636.062,0.0106969,636.062,0.0107411,636.062,0.0107094,636.062,0.0107075,636.062,0.0107518,636.062,0.01202,
634.008,0.0118048,634.008,0.0108321,634.008,0.010671,634.008,0.0110263,634.008,0.0109542,634.008,0.0109536,634.008,0.0118048,
631.952,0.011592,631.952,0.0105944,631.952,0.0106786,631.952,0.0106856,631.952,0.0106798,631.952,0.0111011,631.952,0.011592,
630.042,0.0120086,630.042,0.0105513,630.042,0.0106787,630.042,0.0105938,630.042,0.010547,630.042,0.010879,630.042,0.0120086,
627.984,0.0116911,627.984,0.0103915,627.984,0.0107659,627.984,0.010511,627.984,0.010616,627.984,0.0107289,627.984,0.0116911,
626.072,0.0117492,626.072,0.0105555,626.072,0.0107415,626.072,0.0106954,626.072,0.0106002,626.072,0.0109863,626.072,0.0117492,
624.012,0.0113344,624.012,0.0103701,624.012,0.0106879,624.012,0.0105177,624.012,0.0103918,624.012,0.0107672,624.012,0.0113344,
621.951,0.011647,621.951,0.0102418,621.951,0.010447,621.951,0.0101434,621.951,0.0104805,621.951,0.0106718,621.951,0.011647,
620.035,0.0113988,620.035,0.0102118,620.035,0.0104518,620.035,0.0105165,620.035,0.0104815,620.035,0.0106467,620.035,0.0113988,
617.972,0.0113755,617.972,0.0101804,617.972,0.0102531,617.972,0.0103314,617.972,0.010275,617.972,0.0106746,617.972,0.0113755,
616.054,0.011231,616.054,0.00986013,616.054,0.0100759,616.054,0.0101216,616.054,0.0101478,616.054,0.0105844,616.054,0.011231,
613.988,0.011137,613.988,0.0100022,613.988,0.0100017,613.988,0.00991169,613.988,0.0100788,613.988,0.0105021,613.988,0.011137,
612.069,0.0108591,612.069,0.00980535,612.069,0.00994053,612.069,0.00984337,612.069,0.0100588,612.069,0.0100179,612.069,0.0108591,
610.001,0.0111087,610.001,0.00961409,610.001,0.00977112,610.001,0.00969707,610.001,0.00984761,610.001,0.0102018,610.001,0.0111087,
607.931,0.010829,607.931,0.00965332,607.931,0.00971073,607.931,0.00948316,607.931,0.0100037,607.931,0.0101441,607.931,0.010829,
606.009,0.0107626,606.009,0.00940504,606.009,0.009487,606.009,0.00970525,606.009,0.00980114,606.009,0.00973125,606.009,0.0107626,
603.937,0.0106751,603.937,0.00944813,603.937,0.00940248,603.937,0.00970798,603.937,0.00960327,603.937,0.00960298,603.937,0.0106751,
602.013,0.0104139,602.013,0.0091903,602.013,0.00948938,602.013,0.00928031,602.013,0.00957535,602.013,0.00937261,602.013,0.0104139,
599.939,0.0103021,599.939,0.00932101,599.939,0.00923895,599.939,0.00902233,599.939,0.00955961,599.939,0.00934807,599.939,0.0103021,
598.012,0.00997065,598.012,0.00879188,598.012,0.00907327,598.012,0.00909536,598.012,0.00894551,598.012,0.00903396,598.012,0.00997065,
595.936,0.010196,595.936,0.00882559,595.936,0.00921626,595.936,0.00910557,595.936,0.00931686,595.936,0.00906732,595.936,0.010196,
594.008,0.0100952,594.008,0.00846878,594.008,0.00874917,594.008,0.00894345,594.008,0.00892736,594.008,0.00890569,594.008,0.0100952,
591.93,0.00971851,591.93,0.00843782,591.93,0.00848652,591.93,0.00865364,591.93,0.0087694,591.93,0.00864709,591.93,0.00971851,
589.999,0.00955976,589.999,0.00822751,589.999,0.00841858,589.999,0.0087062,589.999,0.00858103,589.999,0.00847221,589.999,0.00955976,
588.067,0.00945655,588.067,0.00810726,588.067,0.00794506,588.067,0.00811461,588.067,0.00817578,588.067,0.00848955,588.067,0.00945655,
585.986,0.00896932,585.986,0.0077483,585.986,0.00816365,585.986,0.00785135,585.986,0.00819641,585.986,0.00791699,585.986,0.00896932,
584.052,0.00878493,584.052,0.00758387,584.052,0.00779621,584.052,0.00770248,584.052,0.00769347,584.052,0.00793138,584.052,0.00878493,
581.969,0.00845405,581.969,0.0074334,581.969,0.0074851,581.969,0.00747535,581.969,0.00746327,581.969,0.00755342,581.969,0.00845405,
580.033,0.00824582,580.033,0.00697864,580.033,0.00716771,580.033,0.00702928,580.033,0.00731016,580.033,0.00726796,580.033,0.00824582,
577.948,0.0079903,577.948,0.00652077,577.948,0.00668367,577.948,0.00669495,577.948,0.0068663,577.948,0.00686464,577.948,0.0079903,
576.01,0.00755611,576.01,0.0063121,576.01,0.00661404,576.01,0.00652245,576.01,0.0064818,576.01,0.00674892,576.01,0.00755611,
574.072,0.00728594,574.072,0.00591376,574.072,0.00611988,574.072,0.00611353,574.072,0.00598441,574.072,0.00613154,574.072,0.00728594,
571.983,0.00673801,571.983,0.00548001,571.983,0.0055192,571.983,0.00557468,571.983,0.0057208,571.983,0.00580732,571.983,0.00673801,
570.043,0.0062592,570.043,0.0051788,570.043,0.00530262,570.043,0.00520699,570.043,0.00530862,570.043,0.00521391,570.043,0.0062592,
567.952,0.00577917,567.952,0.0046144,567.952,0.00462921,567.952,0.00482699,567.952,0.00476242,567.952,0.00466437,567.952,0.00577917,
566.01,0.00530758,566.01,0.00417248,566.01,0.00415131,566.01,0.00419051,566.01,0.00429217,566.01,0.00446943,566.01,0.00530758,
564.067,0.00479205,564.067,0.00347443,564.067,0.00368955,564.067,0.00350843,564.067,0.00380247,564.067,0.00376777,564.067,0.00479205,
561.973,0.00429518,561.973,0.00307746,561.973,0.00311305,561.973,0.00324069,561.973,0.0031823,561.973,0.00339722,561.973,0.00429518,
560.028,0.00360512,560.028,0.00249841,560.028,0.00240436,560.028,0.00250339,560.028,0.00257798,560.028,0.00264231,560.028,0.00360512,
557.932,0.00300916,557.932,0.00188896,557.932,0.00188171,557.932,0.00209404,557.932,0.00204951,557.932,0.00227605,557.932,0.00300916,
555.985,0.00254463,555.985,0.00125332,555.985,0.00131422,555.985,0.00140264,555.985,0.00134902,555.985,0.0016026,555.985,0.00254463,
554.037,0.0018044,554.037,0.000419944,554.037,0.000573727,554.037,0.00071333,554.037,0.00064198,554.037,0.000963897,554.037,0.0018044,
551.938,0.00110451,551.938,-8.77446e-05,551.938,3.96591e-05,551.938,1.94145e-06,551.938,0.000213405,551.938,0.00038893,551.938,0.00110451,
549.988,0.00063117,549.988,-0.000575426,549.988,-0.000574961,549.988,-0.000523203,549.988,-0.000407099,549.988,-0.000322678,549.988,0.00063117,
548.038,-0.000180802,548.038,-0.00134874,548.038,-0.0011363,548.038,-0.0012326,548.038,-0.00127544,548.038,-0.00109644,548.038,-0.000180802,
545.936,-0.000454837,545.936,-0.00176844,545.936,-0.00166541,545.936,-0.00160749,545.936,-0.00158222,545.936,-0.00146629,545.936,-0.000454837,
543.983,-0.000945671,543.983,-0.00215256,543.983,-0.00202247,543.983,-0.00202849,543.983,-0.002027,543.983,-0.00196098,543.983,-0.000945671,
542.03,-0.00100017,542.03,-0.0024286,542.03,-0.00217137,542.03,-0.00226362,542.03,-0.00218764,542.03,-0.0022204,542.03,-0.00100017,
539.925,-0.00109422,539.925,-0.00225223,539.925,-0.00211068,539.925,-0.00231218,539.925,-0.00201963,539.925,-0.00215699,539.925,-0.00109422,
537.97,-0.00085903,537.97,-0.00218017,537.97,-0.00222772,537.97,-0.00221211,537.97,-0.00208409,537.97,-0.00203932,537.97,-0.00085903,
536.014,-0.000433529,536.014,-0.00173797,536.014,-0.00149322,536.014,-0.0015298,536.014,-0.00136788,536.014,-0.00143012,536.014,-0.000433529,
534.057,-7.28888e-05,534.057,-0.00129748,534.057,-0.000928365,534.057,-0.00115143,534.057,-0.0010371,534.057,-0.000886724,534.057,-7.28888e-05,
531.948,0.00116755,531.948,-5.80325e-05,531.948,9.15683e-05,531.948,0.000118444,531.948,5.716e-05,531.948,0.000278027,531.948,0.00116755,
529.989,0.00249086,529.989,0.00124981,529.989,0.00145882,529.989,0.00137496,529.989,0.00152516,529.989,0.00152802,529.989,0.00249086,
528.03,0.00379093,528.03,0.00244223,528.03,0.00257624,528.03,0.00264653,528.03,0.0025484,528.03,0.0030662,528.03,0.00379093,
526.069,0.00553512,526.069,0.00397086,526.069,0.00436271,526.069,0.00436368,526.069,0.00446891,526.069,0.00448687,526.069,0.00553512,
523.957,0.00740607,523.957,0.00646564,523.957,0.0064781,523.957,0.00619912,523.957,0.00618008,523.957,0.00623906,523.957,0.00740607,
521.994,0.00886793,521.994,0.00810309,521.994,0.00790499,521.994,0.00803526,521.994,0.00792344,521.994,0.00802764,521.994,0.00886793,
520.031,0.010817,520.031,0.0097511,520.031,0.00960991,520.031,0.00953425,520.031,0.00963625,520.031,0.00972868,520.031,0.010817,
518.067,0.0124627,518.067,0.0115789,518.067,0.0112764,518.067,0.0113504,518.067,0.0118149,518.067,0.0118617,518.067,0.0124627,
515.951,0.0143192,515.951,0.0128189,515.951,0.0130298,515.951,0.01307,515.951,0.013076,515.951,0.0133488,515.951,0.0143192,
513.985,0.0154121,513.985,0.0143398,513.985,0.0144415,513.985,0.0145443,513.985,0.0147985,513.985,0.0146903,513.985,0.0154121,
512.019,0.0169807,512.019,0.0156238,512.019,0.0161195,512.019,0.0162594,512.019,0.0161012,512.019,0.0160736,512.019,0.0169807,
510.0513,0.0178613,510.0513,0.0169434,510.0513,0.016761,510.0513,0.0168397,510.0513,0.0171873,510.0513,0.0168831,510.0513,0.0178613,
507.932,0.0191941,507.932,0.0180009,507.932,0.0182932,507.932,0.0180031,507.932,0.0181518,507.932,0.0182392,507.932,0.0191941,
505.962,0.0199583,505.962,0.0187216,505.962,0.0188256,505.962,0.0189385,505.962,0.0190001,505.962,0.0190338,505.962,0.0199583,
503.992,0.0204825,503.992,0.0194292,503.992,0.0193652,503.992,0.0193952,503.992,0.0192794,503.992,0.0195787,503.992,0.0204825,
502.022,0.02079558,502.022,0.0198265,502.022,0.0201046,502.022,0.0198738,502.022,0.0198437,502.022,0.0199929,502.022,0.02079558,
500.05,0.021106,500.05,0.0201112,500.05,0.0201207,500.05,0.0200356,500.05,0.0201122,500.05,0.0199669,500.05,0.021106,
497.926,0.021245,497.926,0.0200278,497.926,0.0200199,497.926,0.0199592,497.926,0.0201648,497.926,0.0202358,497.926,0.021245,
495.953,0.0212313,495.953,0.0199585,495.953,0.0200558,495.953,0.0201104,495.953,0.0204408,495.953,0.0201866,495.953,0.0212313,
493.978,0.0209888,493.978,0.0198167,493.978,0.0197591,493.978,0.019702,493.978,0.019879,493.978,0.020152,493.978,0.0209888,
492.003,0.0206536,492.003,0.0195008,492.003,0.0195308,492.003,0.0195409,492.003,0.0194887,492.003,0.0197446,492.003,0.0206536,
490.028,0.0204045,490.028,0.0189685,490.028,0.0190142,490.028,0.019121,490.028,0.019209,490.028,0.0192149,490.028,0.0204045,
488.051,0.0197419,488.051,0.0185049,488.051,0.0185054,488.051,0.0185003,488.051,0.0184253,488.051,0.0186045,488.051,0.0197419,
486.074,0.0192243,486.074,0.0179653,486.074,0.0179917,486.074,0.0179372,486.074,0.0181237,486.074,0.0180576,486.074,0.0192243,
483.944,0.0190026,483.944,0.0175991,483.944,0.0180653,483.944,0.0177894,483.944,0.0177992,483.944,0.018092,483.944,0.0190026,
481.965,0.0183005,481.965,0.0166505,481.965,0.0170865,481.965,0.0170625,481.965,0.0170112,481.965,0.0171021,481.965,0.0183005,
479.985,0.0175719,479.985,0.0158682,479.985,0.0161905,479.985,0.0163045,479.985,0.0163199,479.985,0.0165873,479.985,0.0175719,
478.004,0.0174246,478.004,0.0156503,478.004,0.0162242,478.004,0.0160614,478.004,0.0160449,478.004,0.0162167,478.004,0.0174246,
476.023,0.017464,476.023,0.0159268,476.023,0.0159725,476.023,0.016211,476.023,0.0160788,476.023,0.0161781,476.023,0.017464,
474.041,0.0179922,474.041,0.0165174,474.041,0.0164345,474.041,0.0166542,474.041,0.0166813,474.041,0.0168213,474.041,0.0179922,
472.058,0.0188081,472.058,0.0174542,472.058,0.0174042,472.058,0.0176535,472.058,0.017551,472.058,0.0178169,472.058,0.0188081,
470.075,0.0200904,470.075,0.0185724,470.075,0.0187013,470.075,0.0190268,470.075,0.0188913,470.075,0.0187657,470.075,0.0200904,
467.938,0.021766,467.938,0.0203738,467.938,0.0205364,467.938,0.0206688,467.938,0.0206795,467.938,0.0209307,467.938,0.021766,
465.952,0.0234084,465.952,0.0220434,465.952,0.0219739,465.952,0.0221147,465.952,0.0222405,465.952,0.022168,465.952,0.0234084,
463.966,0.0252334,463.966,0.0234679,463.966,0.0236261,463.966,0.0237408,463.966,0.0237444,463.966,0.0240564,463.966,0.0252334,
461.98,0.0266172,461.98,0.0250368,461.98,0.025396,461.98,0.0253795,461.98,0.0252552,461.98,0.0254664,461.98,0.0266172,
459.992,0.0279173,459.992,0.0262894,459.992,0.0264922,459.992,0.0266986,459.992,0.0266354,459.992,0.0268206,459.992,0.0279173,
458.004,0.0294107,458.004,0.0277629,458.004,0.0276527,458.004,0.0279517,458.004,0.0280592,458.004,0.0280259,458.004,0.0294107,
456.015,0.0301631,456.015,0.0286153,456.015,0.0287688,456.015,0.0288856,456.015,0.0290965,456.015,0.0290891,456.015,0.0301631,
454.025,0.0310252,454.025,0.0297347,454.025,0.029579,454.025,0.0296194,454.025,0.0295839,454.025,0.0296888,454.025,0.0310252,
452.035,0.0316171,452.035,0.030144,452.035,0.0304218,452.035,0.0304125,452.035,0.0302783,452.035,0.0304559,452.035,0.0316171,
450.044,0.0321503,450.044,0.0304531,450.044,0.0307531,450.044,0.0308403,450.044,0.0307166,450.044,0.0307914,450.044,0.0321503,
448.052,0.0326644,448.052,0.0309225,448.052,0.0312217,448.052,0.031369,448.052,0.0311614,448.052,0.0312729,448.052,0.0326644,
446.059,0.0329797,446.059,0.0312322,446.059,0.0317232,446.059,0.0317866,446.059,0.0316516,446.059,0.0316951,446.059,0.0329797,
444.066,0.0330575,444.066,0.0316086,444.066,0.0316682,444.066,0.0319614,444.066,0.0321124,444.066,0.031907,444.066,0.0330575,
442.072,0.0331921,442.072,0.0315544,442.072,0.0317554,442.072,0.0320219,442.072,0.0319768,442.072,0.0320284,442.072,0.0331921,
439.923,0.0336053,439.923,0.0318146,439.923,0.0320368,439.923,0.0320551,439.923,0.0322973,439.923,0.032303,439.923,0.0336053,
437.928,0.0335138,437.928,0.0318073,437.928,0.0320305,437.928,0.0319258,437.928,0.032243,437.928,0.0321074,437.928,0.0335138,
435.932,0.0329545,435.932,0.0310898,435.932,0.0314717,435.932,0.0314886,435.932,0.0316313,435.932,0.031613,435.932,0.0329545,
433.935,0.032842,433.935,0.0309936,433.935,0.0310906,433.935,0.0311354,433.935,0.0315443,433.935,0.0314165,433.935,0.032842,
431.937,0.0326664,431.937,0.0308142,431.937,0.0310249,431.937,0.031124,431.937,0.0311673,431.937,0.0313356,431.937,0.0326664,
429.938,0.0323448,429.938,0.0307746,429.938,0.0308362,429.938,0.0310543,429.938,0.0309759,429.938,0.0310549,429.938,0.0323448,
427.939,0.0322645,427.939,0.0302051,427.939,0.0304372,427.939,0.0306366,427.939,0.0309131,427.939,0.0306914,427.939,0.0322645,
425.94,0.0320222,425.94,0.0307248,425.94,0.0302076,425.94,0.0303057,425.94,0.0304542,425.94,0.0307095,425.94,0.0320222,
423.939,0.031897,423.939,0.0303787,423.939,0.0301367,423.939,0.0300852,423.939,0.0301921,423.939,0.0303431,423.939,0.031897,
421.938,0.0318037,421.938,0.0295454,421.938,0.0296891,421.938,0.0298617,421.938,0.0298011,421.938,0.0301723,421.938,0.0318037,
419.936,0.0317518,419.936,0.0296519,419.936,0.0299195,419.936,0.0297749,419.936,0.0298962,419.936,0.0301903,419.936,0.0317518,
417.933,0.0313975,417.933,0.0293962,417.933,0.0294025,417.933,0.0293499,417.933,0.0296972,417.933,0.0297355,417.933,0.0313975,
415.93,0.03102,415.93,0.0288966,415.93,0.0289545,415.93,0.0293337,415.93,0.0294446,415.93,0.0295165,415.93,0.03102,
413.926,0.0305873,413.926,0.028422,413.926,0.028482,413.926,0.0287001,413.926,0.0287492,413.926,0.0291614,413.926,0.0305873,
412.076,0.0300482,412.076,0.0279407,412.076,0.0281411,412.076,0.0282802,412.076,0.0283245,412.076,0.0285783,412.076,0.0300482,
410.071,0.0297038,410.071,0.0274305,410.071,0.0277984,410.071,0.0277398,410.071,0.0279316,410.071,0.0280915,410.071,0.0297038,
408.065,0.0290721,408.065,0.0266777,408.065,0.0269906,408.065,0.0266673,408.065,0.0273167,408.065,0.0272845,408.065,0.0290721,
406.058,0.028671,406.058,0.0262135,406.058,0.0263835,406.058,0.0265656,406.058,0.0266955,406.058,0.026976,406.058,0.028671,
404.051,0.0279843,404.051,0.0255319,404.051,0.0257556,404.051,0.0256566,404.051,0.0261078,404.051,0.0265143,404.051,0.0279843,
402.043,0.0273625,402.043,0.0246329,402.043,0.0249025,402.043,0.0249249,402.043,0.0253859,402.043,0.0258601,402.043,0.0273625,
400.035,0.0269164,400.035,0.0243077,400.035,0.024652,400.035,0.0245414,400.035,0.0247123,400.035,0.0252089,400.035,0.0269164,
398.026,0.0264503,398.026,0.0239141,398.026,0.0243604,398.026,0.0242957,398.026,0.0244802,398.026,0.0250475,398.026,0.0264503,
396.016,0.0258424,396.016,0.0235334,396.016,0.0236281,396.016,0.023582,396.016,0.0239194,396.016,0.0243219,396.016,0.0258424,
394.005,0.026015,394.005,0.0231423,394.005,0.0236048,394.005,0.0234184,394.005,0.0237174,394.005,0.0243341,394.005,0.026015,
391.994,0.0257118,391.994,0.0231337,391.994,0.0231363,391.994,0.0230273,391.994,0.0234213,391.994,0.0240056,391.994,0.0257118,
389.983,0.0257157,389.983,0.0230533,389.983,0.0230732,389.983,0.0233174,389.983,0.0235751,389.983,0.0237812,389.983,0.0257157,
387.97,0.0257446,387.97,0.0228944,387.97,0.0233147,387.97,0.0232457,387.97,0.0235235,387.97,0.0243906,387.97,0.0257446,
385.957,0.0261639,385.957,0.0230421,385.957,0.0231245,385.957,0.0235232,385.957,0.0235843,385.957,0.0241651,385.957,0.0261639,
383.944,0.0269567,383.944,0.0237529,383.944,0.024008,383.944,0.0239217,383.944,0.0244061,383.944,0.0248769,383.944,0.0269567,
381.929,0.0276036,381.929,0.024366,381.929,0.0246534,381.929,0.0245759,381.929,0.0249456,381.929,0.0253297,381.929,0.0276036,
380.069,0.0281631,380.069,0.0251405,380.069,0.0253177,380.069,0.0251745,380.069,0.0255326,380.069,0.0261868,380.069,0.0281631,
378.054,0.0293943,378.054,0.0260565,378.054,0.0258896,378.054,0.026224,378.054,0.0268801,378.054,0.0273009,378.054,0.0293943,
376.038,0.0308038,376.038,0.0272263,376.038,0.0272227,376.038,0.027792,376.038,0.0281669,376.038,0.0286168,376.038,0.0308038,
374.021,0.0321394,374.021,0.0281218,374.021,0.028758,374.021,0.0290104,374.021,0.0293016,374.021,0.0298286,374.021,0.0321394,
372.004,0.0338023,372.004,0.0296696,372.004,0.0298957,372.004,0.0300812,372.004,0.0304316,372.004,0.0311623,372.004,0.0338023,
369.986,0.0352301,369.986,0.0310974,369.986,0.0311586,369.986,0.0312481,369.986,0.0318119,369.986,0.0325092,369.986,0.0352301,
367.968,0.0367977,367.968,0.0321484,367.968,0.0322647,367.968,0.0326147,367.968,0.0330265,367.968,0.0337222,367.968,0.0367977,
365.948,0.0380924,365.948,0.0335021,365.948,0.0338191,365.948,0.033992,365.948,0.0343046,365.948,0.0353666,365.948,0.0380924,
363.929,0.0392423,363.929,0.0346368,363.929,0.0347804,363.929,0.034894,363.929,0.0353201,363.929,0.0362881,363.929,0.0392423,
362.064,0.0399269,362.064,0.0349564,362.064,0.035551,362.064,0.0359236,362.064,0.0356876,362.064,0.0370994,362.064,0.0399269,
360.043,0.0411263,360.043,0.0359317,360.043,0.036326,360.043,0.0366888,360.043,0.0370525,360.043,0.0382698,360.043,0.0411263,
358.022,0.0415611,358.022,0.0361558,358.022,0.0365141,358.022,0.0368847,358.022,0.0374154,358.022,0.0383942,358.022,0.0415611,
356,0.0422533,356,0.036727,356,0.0371671,356,0.0373918,356,0.038105,356,0.0390216,356,0.0422533,
353.977,0.0428359,353.977,0.0371152,353.977,0.0374641,353.977,0.0377279,353.977,0.038204,353.977,0.0395326,353.977,0.0428359,
351.954,0.0430581,351.954,0.0370848,351.954,0.0375943,351.954,0.0378391,351.954,0.0383654,351.954,0.0397774,351.954,0.0430581,
349.93,0.0434793,349.93,0.0372532,349.93,0.0378345,349.93,0.0378644,349.93,0.038535,349.93,0.0401047,349.93,0.0434793,
348.062,0.0436632,348.062,0.0371304,348.062,0.0376425,348.062,0.0382317,348.062,0.0388843,348.062,0.0401928,348.062,0.0436632,
346.037,0.043489,346.037,0.0373601,346.037,0.037525,346.037,0.0379618,346.037,0.0385262,346.037,0.0401882,346.037,0.043489,
344.012,0.0440153,344.012,0.0373542,344.012,0.037618,344.012,0.038027,344.012,0.0387828,344.012,0.0402083,344.012,0.0440153,
341.986,0.0439365,341.986,0.0372006,341.986,0.0377355,341.986,0.0379507,341.986,0.0386706,341.986,0.040143,341.986,0.0439365,
339.959,0.0439497,339.959,0.036785,339.959,0.0371975,339.959,0.0376114,339.959,0.0385537,339.959,0.0397991,339.959,0.0439497,
337.932,0.0439257,337.932,0.0366901,337.932,0.036947,337.932,0.0375045,337.932,0.0383792,337.932,0.0398731,337.932,0.0439257,
336.061,0.0437969,336.061,0.0364076,336.061,0.0367412,336.061,0.037251,336.061,0.0382171,336.061,0.0397521,336.061,0.0437969,
334.032,0.0436885,334.032,0.0359819,334.032,0.036463,334.032,0.0368617,334.032,0.0377422,334.032,0.0394931,334.032,0.0436885,
332.004,0.0439116,332.004,0.0358736,332.004,0.0363049,332.004,0.036713,332.004,0.0377741,332.004,0.0392612,332.004,0.0439116,
329.975,0.044007,329.975,0.0354134,329.975,0.0358148,329.975,0.0362688,329.975,0.0373492,329.975,0.0390296,329.975,0.044007,
327.945,0.0437008,327.945,0.03513,327.945,0.0354849,327.945,0.03603,327.945,0.0372517,327.945,0.0389616,327.945,0.0437008,
326.071,0.0437179,326.071,0.0349895,326.071,0.0353823,326.071,0.0357924,326.071,0.0370009,326.071,0.0390422,326.071,0.0437179,
324.04,0.0439012,324.04,0.0350036,324.04,0.0353303,324.04,0.0360131,324.04,0.0371434,324.04,0.0390843,324.04,0.0439012,
322.009,0.0442956,322.009,0.0350786,322.009,0.0355118,322.009,0.0360969,322.009,0.0371546,322.009,0.039402,322.009,0.0442956,
319.977,0.0446621,319.977,0.035194,319.977,0.0356024,319.977,0.0363556,319.977,0.0374513,319.977,0.039375,319.977,0.0446621,
317.945,0.0453243,317.945,0.0354289,317.945,0.0359037,317.945,0.0368819,317.945,0.0377561,317.945,0.0398928,317.945,0.0453243,
316.068,0.0456129,316.068,0.0358163,316.068,0.0360428,316.068,0.037401,316.068,0.0377748,316.068,0.0401799,316.068,0.0456129,
314.035,0.0467777,314.035,0.0364405,314.035,0.0368736,314.035,0.0384131,314.035,0.0386321,314.035,0.0408674,314.035,0.0467777,
312.001,0.047461,312.001,0.0371323,312.001,0.0372152,312.001,0.0394218,312.001,0.0389822,312.001,0.0415771,312.001,0.047461,
309.967,0.0485426,309.967,0.0373148,309.967,0.037514,309.967,0.0403676,309.967,0.0394058,309.967,0.0423877,309.967,0.0485426,
307.932,0.0501046,307.932,0.0379441,307.932,0.0382218,307.932,0.0414464,307.932,0.040228,307.932,0.0433284,307.932,0.0501046,
306.053,0.0530727,306.053,0.0385841,306.053,0.0387756,306.053,0.0422274,306.053,0.0411022,306.053,0.0447666,306.053,0.0530727,
304.018,0.0571509,304.018,0.0386344,304.018,0.0386746,304.018,0.0426466,304.018,0.0419927,304.018,0.0467295,304.018,0.0571509,
301.981,0.0678041,301.981,0.039494,301.981,0.0402319,301.981,0.0443607,301.981,0.0447273,301.981,0.0532492,301.981,0.0678041,
299.945,0.0923462,299.945,0.0406826,299.945,0.0421314,299.945,0.0476054,299.945,0.050728,299.945,0.0668131,299.945,0.0923462,
298.064,0.138649,298.064,0.0427296,298.064,0.0458892,298.064,0.0535095,298.064,0.062066,298.064,0.0885996,298.064,0.138649,
296.026,0.257305,296.026,0.0492178,296.026,0.0569849,296.026,0.0708122,296.026,0.0929899,296.026,0.147067,296.026,0.257305,
293.988,0.458678,293.988,0.0604887,293.988,0.0762057,293.988,0.0994413,293.988,0.146689,293.988,0.244034,293.988,0.458678,
291.949,0.843138,291.949,0.078982,291.949,0.109051,291.949,0.15251,291.949,0.245741,291.949,0.434321,291.949,0.843138,
290.067,1.16317,290.067,0.0925835,290.067,0.134147,290.067,0.196705,290.067,0.331956,290.067,0.596632,290.067,1.16317,
288.028,1.55343,288.028,0.103335,288.028,0.158178,288.028,0.248724,288.028,0.430836,288.028,0.794825,288.028,1.55343,
285.988,1.85508,285.988,0.113679,285.988,0.178823,285.988,0.288967,285.988,0.511458,285.988,0.952895,285.988,1.85508,
283.947,2.01246,283.947,0.118688,283.947,0.189889,283.947,0.310644,283.947,0.552621,283.947,1.03092,283.947,2.01246,
282.063,2.07856,282.063,0.12022,282.063,0.194475,282.063,0.321819,282.063,0.572032,282.063,1.0686,282.063,2.07856,
280.022,2.09865,280.022,0.120398,280.022,0.196002,280.022,0.326873,280.022,0.580512,280.022,1.08589,280.022,2.09865,
277.98,2.04445,277.98,0.117792,277.98,0.192496,277.98,0.320625,277.98,0.564479,277.98,1.05778,277.98,2.04445,
275.9375,1.89093,275.9375,0.112678,275.9375,0.183134,275.9375,0.302172,275.9375,0.52553,275.9375,0.98296,275.9375,1.89093,
274.052,1.72704,274.052,0.106109,274.052,0.171067,274.052,0.279927,274.052,0.481176,274.052,0.89787,274.052,1.72704,
272.009,1.52604,272.009,0.0975432,272.009,0.155279,272.009,0.251552,272.009,0.427738,272.009,0.793719,272.009,1.52604,
269.965,1.31618,269.965,0.0900902,269.965,0.140431,269.965,0.22408,269.965,0.373513,269.965,0.689075,269.965,1.31618,
268.078,1.12162,268.078,0.0821777,268.078,0.125104,268.078,0.196145,268.078,0.319931,268.078,0.587553,268.078,1.12162,
266.034,0.936273,266.034,0.0748,266.034,0.111083,266.034,0.169772,266.034,0.271275,266.034,0.494136,266.034,0.936273,
263.989,0.75152,263.989,0.066055,263.989,0.0954698,263.989,0.142932,263.989,0.223118,263.989,0.402304,263.989,0.75152,
261.944,0.597418,261.944,0.058534,261.944,0.0819341,261.944,0.119271,261.944,0.181391,261.944,0.321472,261.944,0.597418,
260.055,0.510697,260.055,0.0549536,260.055,0.0749017,260.055,0.106346,260.055,0.158188,260.055,0.276291,260.055,0.510697,
258.009,0.400481,258.009,0.0504854,258.009,0.0660275,258.009,0.0906541,258.009,0.129477,258.009,0.220247,258.009,0.400481,
255.963,0.325922,255.963,0.0473327,255.963,0.0600218,255.963,0.0793059,255.963,0.109293,255.963,0.181049,255.963,0.325922,
254.073,0.270907,254.073,0.0460683,254.073,0.0563682,254.073,0.0719953,254.073,0.0958724,254.073,0.153898,254.073,0.270907,
252.026,0.236998,252.026,0.0458464,252.026,0.0546624,252.026,0.0678142,252.026,0.0878485,252.026,0.136737,252.026,0.236998,
249.978,0.220495,249.978,0.0466949,249.978,0.0548817,249.978,0.0665404,249.978,0.0845811,249.978,0.128773,249.978,0.220495,
247.942,0.228612,247.942,0.050271,247.942,0.058189,247.942,0.06982,247.942,0.0882954,247.942,0.133731,247.942,0.228612,
246.063,0.260382,246.063,0.0544443,246.063,0.063532,246.063,0.0758956,246.063,0.0977912,246.063,0.148879,246.063,0.260382,
244.026,0.348665,244.026,0.0644883,244.026,0.0765775,244.026,0.0933536,244.026,0.124499,244.026,0.194623,244.026,0.348665,
241.989,0.45973,241.989,0.0741741,241.989,0.0909474,241.989,0.112856,241.989,0.1563,241.989,0.249749,241.989,0.45973,
239.951,0.612727,239.951,0.0891975,239.951,0.11128,239.951,0.140557,239.951,0.200436,239.951,0.326658,239.951,0.612727,
238.07,0.832802,238.07,0.108577,238.07,0.139504,238.07,0.182309,238.07,0.262095,238.07,0.440303,238.07,0.832802,
236.032,1.08733,236.032,0.130887,236.032,0.172383,236.032,0.229594,236.032,0.336399,236.032,0.579737,236.032,1.08733,
233.993,1.46083,233.993,0.16097,233.993,0.2168,233.993,0.29699,233.993,0.445088,233.993,0.777144,233.993,1.46083,
231.954,1.88763,231.954,0.194965,231.954,0.270266,231.954,0.379298,231.954,0.570421,231.954,1.00643,231.954,1.88763,
230.072,2.22652,230.072,0.224171,230.072,0.312854,230.072,0.445731,230.072,0.676199,230.072,1.1948,230.072,2.22652,
228.032,2.5928,228.032,0.259156,228.032,0.364064,228.032,0.520264,228.032,0.785931,228.032,1.39811,228.032,2.5928,
225.992,2.86538,225.992,0.294206,225.992,0.409319,225.992,0.582471,225.992,0.882441,225.992,1.55881,225.992,2.86538,
223.952,3.07867,223.952,0.334812,223.952,0.463414,223.952,0.661457,223.952,1.00013,223.952,1.75545,223.952,3.07867,
222.068,3.27731,222.068,0.369993,222.068,0.509538,222.068,0.724377,222.068,1.098,222.068,1.92056,222.068,3.27731,
220.027,3.31324,220.027,0.412174,220.027,0.562895,220.027,0.790325,220.027,1.19987,220.027,2.06929,220.027,3.31324,
217.985,3.26003,217.985,0.458442,217.985,0.616417,217.985,0.85634,217.985,1.27926,217.985,2.17551,217.985,3.26003,
215.943,3.46545,215.943,0.507888,215.943,0.672457,215.943,0.916324,215.943,1.3613,215.943,2.2904,215.943,3.46545,
214.058,3.3482,214.058,0.575322,214.058,0.756498,214.058,1.00531,214.058,1.47407,214.058,2.42299,214.058,3.3482,
212.016,3.40805,212.016,0.679436,212.016,0.88132,212.016,1.15967,212.016,1.71447,212.016,2.71212,212.016,3.40805,
209.973,3.40011,209.973,0.851951,209.973,1.11206,209.973,1.46544,209.973,2.12309,209.973,3.0988,209.973,3.40011,
207.93,3.68367,207.93,1.16171,207.93,1.54003,207.93,2.00818,207.93,2.90952,207.93,3.4939,207.93,3.68367,
206.043,3.43066,206.043,1.46836,206.043,1.93842,206.043,2.51673,206.043,3.09484,206.043,3.27221,206.043,3.43066,
203.999,3.39707,203.999,1.99734,203.999,2.54184,203.999,2.93694,203.999,3.17794,203.999,3.28399,203.999,3.39707,
201.955,3.41462,201.955,2.47522,201.955,2.83805,201.955,3.00207,201.955,3.10893,201.955,3.29111,201.955,3.41462,
200.068,3.49592,200.068,2.83561,200.068,2.95416,200.068,3.01423,200.068,3.18891,200.068,3.28145,200.068,3.49592,

mbg_3_138_250uM,
mbg_3_138_250uM
Collection Time: 3/11/2024 5:31:41 PM
Operator Name  :
Scan Software Version: 3.00(339)
Parameter List :
Instrument                        Cary 50
Instrument Version                3.00
Start (nm)                        800.0
Stop (nm)                         200.0
X Mode                            Nanometers
Y Mode                            Abs
UV-Vis Scan Rate (nm/min)         300.00
UV-Vis Data Interval (nm)         0.50
UV-Vis Ave. Time (sec)            0.1000
Beam Mode                         Dual Beam
Baseline Correction               Off
Cycle Mode                        Off
Comments
Method Log     :
Method Name    :
Date/Time stamp: 3/8/2024 4:34:39 PM
Method Modifications:
UVVIS SAT Changed: 3/11/2024 5:07:04 PM, Old:0.0125, New:0.1000
Common SAT Changed: 3/11/2024 5:07:04 PM, Old:0.0125, New:0.1000
Common Interval nm Changed: 3/11/2024 5:07:05 PM, Old:     5.00, New:     0.50
End Method Modifications
<Current Wavelength> , 200.5

mbg_3_138_7uM,
mbg_3_138_7uM
Collection Time: 3/11/2024 5:08:31 PM
Operator Name  :
Scan Software Version: 3.00(339)
Parameter List :
Instrument                        Cary 50
Instrument Version                3.00
Start (nm)                        800.0
Stop (nm)                         200.0
X Mode                            Nanometers
Y Mode                            Abs
UV-Vis Scan Rate (nm/min)         300.00
UV-Vis Data Interval (nm)         0.50
UV-Vis Ave. Time (sec)            0.1000
Beam Mode                         Dual Beam
Baseline Correction               Off
Cycle Mode                        Off
Comments
Method Log     :
Method Name    :
Date/Time stamp: 3/8/2024 4:34:39 PM
Method Modifications:
UVVIS SAT Changed: 3/11/2024 5:07:04 PM, Old:0.0125, New:0.1000
Common SAT Changed: 3/11/2024 5:07:04 PM, Old:0.0125, New:0.1000
Common Interval nm Changed: 3/11/2024 5:07:05 PM, Old:     5.00, New:     0.50
End Method Modifications
<Current Wavelength> , 200.5

mbg_3_138_15uM,
mbg_3_138_15uM
Collection Time: 3/11/2024 5:12:22 PM
Operator Name  :
Scan Software Version: 3.00(339)
Parameter List :
Instrument                        Cary 50
Instrument Version                3.00
Start (nm)                        800.0
Stop (nm)                         200.0
X Mode                            Nanometers
Y Mode                            Abs
UV-Vis Scan Rate (nm/min)         300.00
UV-Vis Data Interval (nm)         0.50
UV-Vis Ave. Time (sec)            0.1000
Beam Mode                         Dual Beam
Baseline Correction               Off
Cycle Mode                        Off
Comments
Method Log     :
Method Name    :
Date/Time stamp: 3/8/2024 4:34:39 PM
Method Modifications:
UVVIS SAT Changed: 3/11/2024 5:07:04 PM, Old:0.0125, New:0.1000
Common SAT Changed: 3/11/2024 5:07:04 PM, Old:0.0125, New:0.1000
Common Interval nm Changed: 3/11/2024 5:07:05 PM, Old:     5.00, New:     0.50
End Method Modifications
<Current Wavelength> , 200.5

mbg_3_138_31uM,
mbg_3_138_31uM
Collection Time: 3/11/2024 5:19:55 PM
Operator Name  :
Scan Software Version: 3.00(339)
Parameter List :
Instrument                        Cary 50
Instrument Version                3.00
Start (nm)                        800.0
Stop (nm)                         200.0
X Mode                            Nanometers
Y Mode                            Abs
UV-Vis Scan Rate (nm/min)         300.00
UV-Vis Data Interval (nm)         0.50
UV-Vis Ave. Time (sec)            0.1000
Beam Mode                         Dual Beam
Baseline Correction               Off
Cycle Mode                        Off
Comments
Method Log     :
Method Name    :
Date/Time stamp: 3/8/2024 4:34:39 PM
Method Modifications:
UVVIS SAT Changed: 3/11/2024 5:07:04 PM, Old:0.0125, New:0.1000
Common SAT Changed: 3/11/2024 5:07:04 PM, Old:0.0125, New:0.1000
Common Interval nm Changed: 3/11/2024 5:07:05 PM, Old:     5.00, New:     0.50
End Method Modifications
<Current Wavelength> , 200.5

mbg_3_138_62uM,
mbg_3_138_62uM
Collection Time: 3/11/2024 5:22:45 PM
Operator Name  :
Scan Software Version: 3.00(339)
Parameter List :
Instrument                        Cary 50
Instrument Version                3.00
Start (nm)                        800.0
Stop (nm)                         200.0
X Mode                            Nanometers
Y Mode                            Abs
UV-Vis Scan Rate (nm/min)         300.00
UV-Vis Data Interval (nm)         0.50
UV-Vis Ave. Time (sec)            0.1000
Beam Mode                         Dual Beam
Baseline Correction               Off
Cycle Mode                        Off
Comments
Method Log     :
Method Name    :
Date/Time stamp: 3/8/2024 4:34:39 PM
Method Modifications:
UVVIS SAT Changed: 3/11/2024 5:07:04 PM, Old:0.0125, New:0.1000
Common SAT Changed: 3/11/2024 5:07:04 PM, Old:0.0125, New:0.1000
Common Interval nm Changed: 3/11/2024 5:07:05 PM, Old:     5.00, New:     0.50
End Method Modifications
<Current Wavelength> , 200.5

mbg_3_138_125uM,
mbg_3_138_125uM
Collection Time: 3/11/2024 5:27:58 PM
Operator Name  :
Scan Software Version: 3.00(339)
Parameter List :
Instrument                        Cary 50
Instrument Version                3.00
Start (nm)                        800.0
Stop (nm)                         200.0
X Mode                            Nanometers
Y Mode                            Abs
UV-Vis Scan Rate (nm/min)         300.00
UV-Vis Data Interval (nm)         0.50
UV-Vis Ave. Time (sec)            0.1000
Beam Mode                         Dual Beam
Baseline Correction               Off
Cycle Mode                        Off
Comments
Method Log     :
Method Name    :
Date/Time stamp: 3/8/2024 4:34:39 PM
Method Modifications:
UVVIS SAT Changed: 3/11/2024 5:07:04 PM, Old:0.0125, New:0.1000
Common SAT Changed: 3/11/2024 5:07:04 PM, Old:0.0125, New:0.1000
Common Interval nm Changed: 3/11/2024 5:07:05 PM, Old:     5.00, New:     0.50
End Method Modifications
<Current Wavelength> , 200.5

mbg_3_138_250uM,
mbg_3_138_250uM
Collection Time: 3/11/2024 5:31:41 PM
Operator Name  :
Scan Software Version: 3.00(339)
Parameter List :
Instrument                        Cary 50
Instrument Version                3.00
Start (nm)                        800.0
Stop (nm)                         200.0
X Mode                            Nanometers
Y Mode                            Abs
UV-Vis Scan Rate (nm/min)         300.00
UV-Vis Data Interval (nm)         0.50
UV-Vis Ave. Time (sec)            0.1000
Beam Mode                         Dual Beam
Baseline Correction               Off
Cycle Mode                        Off
Comments
Method Log     :
Method Name    :
Date/Time stamp: 3/8/2024 4:34:39 PM
Method Modifications:
UVVIS SAT Changed: 3/11/2024 5:07:04 PM, Old:0.0125, New:0.1000
Common SAT Changed: 3/11/2024 5:07:04 PM, Old:0.0125, New:0.1000
Common Interval nm Changed: 3/11/2024 5:07:05 PM, Old:     5.00, New:     0.50
End Method Modifications
<Current Wavelength> , 200.5