File: silicates_UV_vis/Allylsilicates_plot/mbg_3_146_allylmethylcoumarine.csv
mbg_3_146_7uM,,mbg_3_146_15uM,,mbg_3_146_31uM,,mbg_3_146_62uM,,mbg_3_146_125uM,,mbg_3_146_250uM,
Wavelength (nm),Abs,Wavelength (nm),Abs,Wavelength (nm),Abs,Wavelength (nm),Abs,Wavelength (nm),Abs,Wavelength (nm),Abs
799.953,-0.000788702,799.953,-0.000237258,799.953,0.000326597,799.953,0.000167773,799.953,-0.000232497,799.953,0.000939174
798.565,0.000164174,798.565,0.000131547,798.565,7.65516e-05,798.565,0.000188335,798.565,-0.000726787,798.565,0.000840606
797.037,-0.000654215,797.037,-0.000602673,797.037,-0.000173505,797.037,-0.000458716,797.037,-0.000337887,797.037,5.75742e-05
795.509,-0.001085955,795.509,-0.000775886,795.509,-0.000822136,795.509,-0.000572531,795.509,-0.000888016,795.509,-0.00018313
793.979,-0.001254846,793.979,-0.001128249,793.979,-0.000475627,793.979,-0.001475837,793.979,-0.000695465,793.979,0.00029362
792.449,-0.001341976,792.449,-0.001333047,792.449,-0.001290928,792.449,-0.001051353,792.449,-0.001055692,792.449,-0.000206521
791.057,-0.001413504,791.057,-0.001465931,791.057,-0.001026511,791.057,-0.001694086,791.057,-0.001030333,791.057,-0.00055583
789.524,-0.001429708,789.524,-0.001747819,789.524,-0.001304452,789.524,-0.001666341,789.524,-0.001493225,789.524,-0.000347613
787.991,-0.001864029,787.991,-0.001198264,787.991,-0.001633951,787.991,-0.001859647,787.991,-0.001715539,787.991,-0.000786066
786.457,-0.002087648,786.457,-0.0020911,786.457,-0.001400397,786.457,-0.0020354,786.457,-0.001705999,786.457,-0.001032347
785.062,-0.001809434,785.062,-0.002319906,785.062,-0.001735805,785.062,-0.002136438,785.062,-0.001888412,785.062,-0.001400448
783.526,-0.002073427,783.526,-0.002174302,783.526,-0.001820364,783.526,-0.002547047,783.526,-0.002546481,783.526,-0.001296968
781.989,-0.002304302,781.989,-0.002227924,781.989,-0.001754523,781.989,-0.002370163,781.989,-0.002440956,781.989,-0.001132483
780.451,-0.002271548,780.451,-0.002499539,780.451,-0.002095582,780.451,-0.002869433,780.451,-0.002338907,780.451,-0.002175332
779.053,-0.003086007,779.053,-0.002625634,779.053,-0.002704052,779.053,-0.002842637,779.053,-0.003049456,779.053,-0.001656696
777.513,-0.003389141,777.513,-0.002466182,777.513,-0.002279377,777.513,-0.002825149,777.513,-0.002940094,777.513,-0.001474496
775.973,-0.003359038,775.973,-0.002670299,775.973,-0.002671688,775.973,-0.002756476,775.973,-0.00288332,775.973,-0.001938616
774.432,-0.003322459,774.432,-0.003124919,774.432,-0.003438556,774.432,-0.003218715,774.432,-0.002915051,774.432,-0.002061679
773.03,-0.002803134,773.03,-0.002949864,773.03,-0.002562642,773.03,-0.002988891,773.03,-0.003016296,773.03,-0.002212626
771.487,-0.002698958,771.487,-0.003126513,771.487,-0.002817279,771.487,-0.00325443,771.487,-0.00320741,771.487,-0.001776024
769.943,-0.003337769,769.943,-0.003062,769.943,-0.002900754,769.943,-0.003311053,769.943,-0.002893657,769.943,-0.002170438
768.539,-0.003196463,768.539,-0.003076137,768.539,-0.003015062,768.539,-0.003275549,768.539,-0.002780809,768.539,-0.0023749
766.993,-0.003224625,766.993,-0.003178578,766.993,-0.002933615,766.993,-0.002917005,766.993,-0.002794081,766.993,-0.001797473
765.447,-0.002841403,765.447,-0.002886303,765.447,-0.002992285,765.447,-0.002878434,765.447,-0.002833019,765.447,-0.001776024
764.04,-0.003347479,764.04,-0.002949402,764.04,-0.002640505,764.04,-0.003100812,764.04,-0.003026064,764.04,-0.001922998
762.492,-0.003108162,762.492,-0.002713827,762.492,-0.002443891,762.492,-0.003291837,762.492,-0.002971769,762.492,-0.001730597
760.943,-0.002724271,760.943,-0.003256537,760.943,-0.00272103,760.943,-0.002563054,760.943,-0.002737596,760.943,-0.001849904
759.534,-0.003348095,759.534,-0.003236907,759.534,-0.003057168,759.534,-0.002906051,759.534,-0.002950944,759.534,-0.001966241
757.983,-0.003547331,757.983,-0.002721956,757.983,-0.003010178,757.983,-0.003065547,757.983,-0.003205714,757.983,-0.001905525
756.432,-0.003665883,756.432,-0.0031224,756.432,-0.003119162,756.432,-0.003254738,756.432,-0.003422838,756.432,-0.002352759
755.02,-0.00364812,755.02,-0.003254687,755.02,-0.003278375,755.02,-0.002945339,755.02,-0.003724557,755.02,-0.002710174
753.467,-0.003957738,753.467,-0.003847475,753.467,-0.003691346,753.467,-0.003345116,753.467,-0.003988877,753.467,-0.002816508
752.054,-0.004251498,752.054,-0.004149822,752.054,-0.004037044,752.054,-0.003667988,752.054,-0.004330186,752.054,-0.003146867
750.499,-0.005319983,750.499,-0.004534761,750.499,-0.004571034,750.499,-0.004268262,750.499,-0.004675171,750.499,-0.003732
748.943,-0.005184129,748.943,-0.00545288,748.943,-0.004970084,748.943,-0.004745129,748.943,-0.005600813,748.943,-0.004164642
747.528,-0.006411608,747.528,-0.006333704,747.528,-0.006253439,747.528,-0.005876507,747.528,-0.00636248,747.528,-0.005398785
745.971,-0.007240751,745.971,-0.006846941,745.971,-0.006694334,745.971,-0.006087962,745.971,-0.006895097,745.971,-0.00588662
744.554,-0.007561962,744.554,-0.007215903,744.554,-0.007420548,744.554,-0.00672701,744.554,-0.007432407,744.554,-0.006609953
742.995,-0.007474544,742.995,-0.007402379,742.995,-0.007282092,742.995,-0.006871453,742.995,-0.00718423,742.995,-0.006696373
741.435,-0.008797867,741.435,-0.00892372,741.435,-0.008596001,741.435,-0.008293739,741.435,-0.008941166,741.435,-0.007711621
740.016,-0.009774761,740.016,-0.009666827,740.016,-0.009644599,740.016,-0.008613665,740.016,-0.009792478,740.016,-0.00846975
738.454,-0.010732,738.454,-0.0102458,738.454,-0.01048761,738.454,-0.009575375,738.454,-0.0103453,738.454,-0.009783215
737.034,-0.0114022,737.034,-0.0112455,737.034,-0.0111534,737.034,-0.0106061,737.034,-0.0115002,737.034,-0.0102255
735.47,-0.0127044,735.47,-0.0122255,735.47,-0.0123164,735.47,-0.0114043,735.47,-0.0127374,735.47,-0.0117153
734.048,-0.01354596,734.048,-0.01309494,734.048,-0.0132219,734.048,-0.0127046,734.048,-0.0134851,734.048,-0.0123364
732.483,-0.0144756,732.483,-0.0142929,732.483,-0.0139831,732.483,-0.0135591,732.483,-0.0144722,732.483,-0.0136444
731.06,-0.0154449,731.06,-0.0152125,731.06,-0.015133,731.06,-0.0147779,731.06,-0.0153018,731.06,-0.0143117
729.493,-0.0163055,729.493,-0.0158732,729.493,-0.0160103,729.493,-0.0157757,729.493,-0.01628248,729.493,-0.0152681
728.068,-0.01687,728.068,-0.0165788,728.068,-0.0167366,728.068,-0.0162428,728.068,-0.0167534,728.068,-0.0160729
726.5,-0.0176502,726.5,-0.01761855,726.5,-0.0172831,726.5,-0.0175662,726.5,-0.0175506,726.5,-0.0167337
724.931,-0.0182439,724.931,-0.0181623,724.931,-0.0177877,724.931,-0.018206,724.931,-0.0180163,724.931,-0.0172497
723.504,-0.0184828,723.504,-0.0186203,723.504,-0.0185733,723.504,-0.0189304,723.504,-0.0187225,723.504,-0.0177782
721.933,-0.01894393,721.933,-0.0190694,721.933,-0.0188147,721.933,-0.01897773,721.933,-0.0189425,721.933,-0.018212
720.505,-0.019394,720.505,-0.0190681,720.505,-0.0192318,720.505,-0.0193368,720.505,-0.0190584,720.505,-0.0186615
718.932,-0.0193648,718.932,-0.0191084,718.932,-0.0189008,718.932,-0.0191785,718.932,-0.0186879,718.932,-0.01833334
717.502,-0.0193067,717.502,-0.0191128,717.502,-0.0188904,717.502,-0.01900355,717.502,-0.0185661,717.502,-0.0183703
715.928,-0.0189494,715.928,-0.0183538,715.928,-0.0186477,715.928,-0.0187396,715.928,-0.01794574,715.928,-0.0178528
714.497,-0.0181462,714.497,-0.0179064,714.497,-0.017905,714.497,-0.0181666,714.497,-0.0172494,714.497,-0.0173206
713.065,-0.0176086,713.065,-0.0174249,713.065,-0.017019,713.065,-0.0172316,713.065,-0.0163236,713.065,-0.016684
711.488,-0.0164014,711.488,-0.0159371,711.488,-0.0159704,711.488,-0.0160109,711.488,-0.01518967,711.488,-0.0154449
710.055,-0.0149817,710.055,-0.0146512,710.055,-0.0143781,710.055,-0.0148055,710.055,-0.0139465,710.055,-0.0140442
708.477,-0.0137182,708.477,-0.0132919,708.477,-0.0132343,708.477,-0.013477,708.477,-0.0126249,708.477,-0.012776
707.042,-0.0119614,707.042,-0.0115341,707.042,-0.0114676,707.042,-0.0113815,707.042,-0.0106186,707.042,-0.0107514
705.463,-0.009621205,705.463,-0.00921409,705.463,-0.009241509,705.463,-0.009336781,705.463,-0.00853321,705.463,-0.008736982
704.026,-0.007871039,704.026,-0.00748859,704.026,-0.007425943,704.026,-0.007645496,704.026,-0.006842966,704.026,-0.007021502
702.445,-0.005968282,702.445,-0.005692543,702.445,-0.005490302,702.445,-0.005419698,702.445,-0.00490175,702.445,-0.004858236
701.007,-0.003931419,701.007,-0.003478412,701.007,-0.003523401,701.007,-0.003522065,701.007,-0.002904971,701.007,-0.002874165
699.569,-0.002122683,699.569,-0.001775096,699.569,-0.001556526,699.569,-0.002007573,699.569,-0.001483731,699.569,-0.001240856
697.985,-0.000373219,697.985,-1.33E-05,697.985,0.000261657,697.985,0.000101511,697.985,0.000683643,697.985,0.000978374
696.545,0.001620296,696.545,0.002314199,696.545,0.002336711,696.545,0.002089902,696.545,0.002115368,696.545,0.002840052
694.961,0.003394848,694.961,0.003612511,694.961,0.00367819,694.961,0.003351829,694.961,0.003614286,694.961,0.004484913
693.519,0.00494582,693.519,0.005195672,693.519,0.005150615,693.519,0.004958387,693.519,0.004795951,693.519,0.005474477
691.933,0.006372564,691.933,0.006917717,691.933,0.006329591,691.933,0.006604315,691.933,0.006631834,691.933,0.007044299
690.49,0.007274751,690.49,0.007488205,690.49,0.007842782,690.49,0.007212053,690.49,0.007277725,690.49,0.008240359
689.046,0.008191318,689.046,0.008394667,689.046,0.008607881,689.046,0.008382712,689.046,0.008284815,689.046,0.008998786
687.458,0.009237548,687.458,0.009538198,687.458,0.009580933,687.458,0.009544945,687.458,0.00938015,687.458,0.0102861
686.013,0.0104694,686.013,0.0109213,686.013,0.0111239,686.013,0.0110244,686.013,0.0106692,686.013,0.0117457
684.567,0.0106302,684.567,0.0107814,684.567,0.0113837,684.567,0.0109136,684.567,0.0108463,684.567,0.0120655
682.976,0.0111868,682.976,0.0115676,682.976,0.0118186,682.976,0.0117112,682.976,0.0114434,682.976,0.0122648
681.53,0.0117045,681.53,0.0123281,681.53,0.012408,681.53,0.012069,681.53,0.0122115,681.53,0.0129946
679.937,0.0124856,679.937,0.0125046,679.937,0.0127832,679.937,0.0127979,679.937,0.01263339,679.937,0.01347026
678.489,0.01269,678.489,0.0133784,678.489,0.0130696,678.489,0.0132428,678.489,0.0132678,678.489,0.0138074
677.04,0.0127347,677.04,0.01337452,677.04,0.0135959,677.04,0.013053,677.04,0.0132485,677.04,0.01421357
675.445,0.0141831,675.445,0.0141932,675.445,0.0146489,675.445,0.01390026,675.445,0.0137132,675.445,0.0150856
673.995,0.0135365,673.995,0.0138868,673.995,0.013984,673.995,0.0138989,673.995,0.0136075,673.995,0.01498811
672.544,0.0135939,672.544,0.014029,672.544,0.0142366,672.544,0.01367372,672.544,0.0140769,672.544,0.0150138
670.947,0.013679,670.947,0.0142505,670.947,0.014367,670.947,0.0137409,670.947,0.0139931,670.947,0.0149648
669.495,0.0138671,669.495,0.0143353,669.495,0.0143113,669.495,0.0139013,669.495,0.01418423,669.495,0.0155415
668.042,0.0131696,668.042,0.0136179,668.042,0.0140017,668.042,0.0139578,668.042,0.0135785,668.042,0.0144709
666.443,0.0124482,666.443,0.0125652,666.443,0.0128865,666.443,0.0127327,666.443,0.0127131,666.443,0.0136221
664.988,0.0121379,664.988,0.0118717,664.988,0.0123653,664.988,0.01217589,664.988,0.0124022,664.988,0.0132513
663.533,0.0118725,663.533,0.0118597,663.533,0.01201,663.533,0.01179741,663.533,0.0118282,663.533,0.0128829
661.932,0.0114778,661.932,0.0119651,661.932,0.0120554,661.932,0.0114988,661.932,0.0118631,661.932,0.0125613
660.476,0.0113337,660.476,0.0113911,660.476,0.0117275,660.476,0.0114846,660.476,0.0114312,660.476,0.0124255
659.019,0.01098563,659.019,0.0111946,659.019,0.01172685,659.019,0.011214,659.019,0.01182276,659.019,0.0126263
657.561,0.01138676,657.561,0.0113892,657.561,0.0117444,657.561,0.0112875,657.561,0.0121535,657.561,0.0126418
655.957,0.01140887,655.957,0.0115013,655.957,0.0113396,655.957,0.0112368,655.957,0.011986,655.957,0.0123836
654.498,0.0110384,654.498,0.0112525,654.498,0.0116265,654.498,0.0111318,654.498,0.012704,654.498,0.01221476
653.039,0.0112338,653.039,0.0113083,653.039,0.0114004,653.039,0.0114306,653.039,0.01296979,653.039,0.0120316
651.433,0.0112523,651.433,0.0113064,651.433,0.0116364,651.433,0.0116445,651.433,0.0132682,651.433,0.0123104
649.972,0.0107748,649.972,0.0112742,649.972,0.0115495,649.972,0.0114249,649.972,0.0135272,649.972,0.012554
648.51,0.0114125,648.51,0.0112621,648.51,0.0114572,648.51,0.0112779,648.51,0.0136972,648.51,0.0122659
647.048,0.0111581,647.048,0.0112798,647.048,0.0116853,647.048,0.0114921,647.048,0.0140386,647.048,0.0124872
645.439,0.0118194,645.439,0.01203785,645.439,0.01186777,645.439,0.0114698,645.439,0.0145096,645.439,0.0129875
643.976,0.0109698,643.976,0.0113874,643.976,0.0116146,643.976,0.0111726,643.976,0.0139748,643.976,0.0122591
642.512,0.0112411,642.512,0.0114846,642.512,0.0116852,642.512,0.0113449,642.512,0.014306,642.512,0.012131
641.047,0.0111724,641.047,0.0112592,641.047,0.0116862,641.047,0.0112714,641.047,0.014175,641.047,0.0124502
639.435,0.011072,639.435,0.0113618,639.435,0.0117425,639.435,0.0115229,639.435,0.0139946,639.435,0.0123035
637.969,0.0109859,637.969,0.0112463,637.969,0.0116902,637.969,0.0116361,637.969,0.0139941,637.969,0.0125187
636.503,0.0110937,636.503,0.0114674,636.503,0.01163229,636.503,0.0114543,636.503,0.0134521,636.503,0.0123043
635.035,0.0111126,635.035,0.011321,635.035,0.0114392,635.035,0.0114432,635.035,0.0128116,635.035,0.0123916
633.568,0.0110021,633.568,0.0111823,633.568,0.0114171,633.568,0.0112946,633.568,0.0122373,633.568,0.0124244
631.952,0.0109196,631.952,0.011168,631.952,0.0114392,631.952,0.01101919,631.952,0.0120285,631.952,0.0122377
630.483,0.0109425,630.483,0.0113264,630.483,0.011809,630.483,0.0110266,630.483,0.0112392,630.483,0.0122777
629.013,0.01076,629.013,0.01129533,629.013,0.0113713,629.013,0.0108305,629.013,0.0112165,629.013,0.0120084
627.543,0.0108874,627.543,0.0110736,627.543,0.0113576,627.543,0.011028,627.543,0.0110974,627.543,0.012032
626.072,0.0109084,626.072,0.0109166,626.072,0.011448,626.072,0.0111144,626.072,0.0108555,626.072,0.0119975
624.454,0.0107364,624.454,0.0111196,624.454,0.01095279,624.454,0.0109045,624.454,0.0108357,624.454,0.01208794
622.981,0.0106591,622.981,0.0108992,622.981,0.011359,622.981,0.0107546,622.981,0.0106315,622.981,0.0117628
621.509,0.0108118,621.509,0.0107879,621.509,0.0108712,621.509,0.0107234,621.509,0.0107512,621.509,0.01168337
620.035,0.0106016,620.035,0.0107227,620.035,0.0112196,620.035,0.0108036,620.035,0.0107747,620.035,0.0118047
618.561,0.0104802,618.561,0.01105947,618.561,0.0109673,618.561,0.0107901,618.561,0.0107272,618.561,0.0115825
616.939,0.010568,616.939,0.0107475,616.939,0.0107463,616.939,0.0103148,616.939,0.0105246,616.939,0.0118151
615.464,0.0104915,615.464,0.01053,615.464,0.0110289,615.464,0.0104251,615.464,0.0105777,615.464,0.0114602
613.988,0.0104517,613.988,0.0105814,613.988,0.0107405,613.988,0.01042904,613.988,0.0103965,613.988,0.011512
612.512,0.0103562,612.512,0.010552,612.512,0.0108712,612.512,0.0103846,612.512,0.0105957,612.512,0.0113408
611.035,0.0102525,611.035,0.0102589,611.035,0.0105463,611.035,0.0101947,611.035,0.0104511,611.035,0.0115384
609.557,0.0102211,609.557,0.0103349,609.557,0.0106893,609.557,0.010406,609.557,0.0103096,609.557,0.0114396
607.931,0.0100988,607.931,0.0101508,607.931,0.0104825,607.931,0.0102715,607.931,0.0103839,607.931,0.0112675
606.453,0.009971153,606.453,0.00993937,606.453,0.0102487,606.453,0.0100622,606.453,0.0100214,606.453,0.0109096
604.973,0.009862569,604.973,0.0101402,604.973,0.0104849,604.973,0.009984423,604.973,0.0102161,604.973,0.0112142
603.493,0.009932324,603.493,0.009985588,603.493,0.0103733,603.493,0.009869216,603.493,0.0100557,603.493,0.011145
602.013,0.009858889,602.013,0.0101576,602.013,0.0101438,602.013,0.009976186,602.013,0.0100002,602.013,0.010938
600.531,0.00966319,600.531,0.009697706,600.531,0.0101113,600.531,0.009751232,600.531,0.0100047,600.531,0.0110151
599.05,0.009558785,599.05,0.009762485,599.05,0.009887144,599.05,0.009429537,599.05,0.009636273,599.05,0.0107253
597.568,0.009598533,597.568,0.009553174,597.568,0.009948375,597.568,0.009388773,597.568,0.009654667,597.568,0.0107247
595.936,0.00955844,595.936,0.009543913,595.936,0.009901312,595.936,0.009331509,595.936,0.009670998,595.936,0.0107445
594.453,0.009163727,594.453,0.009454431,594.453,0.009648711,594.453,0.009187602,594.453,0.009479987,594.453,0.0105288
592.969,0.009159947,592.969,0.009294906,592.969,0.009511447,592.969,0.009281631,592.969,0.009265102,592.969,0.0103141
591.484,0.009118811,591.484,0.009324473,591.484,0.009423294,591.484,0.009080641,591.484,0.009253969,591.484,0.0102759
589.999,0.009100308,589.999,0.008766308,589.999,0.00902347,589.999,0.008839824,589.999,0.009085188,589.999,0.009988926
588.513,0.008975371,588.513,0.008618469,588.513,0.008971486,588.513,0.008607009,588.513,0.008942524,588.513,0.0101453
587.027,0.008980868,587.027,0.008600752,587.027,0.008684698,587.027,0.008523739,587.027,0.008610468,587.027,0.009821606
585.54,0.008695262,585.54,0.008512758,585.54,0.008720034,585.54,0.008619314,585.54,0.008742141,585.54,0.009855922
584.052,0.008724551,584.052,0.008178023,584.052,0.008558983,584.052,0.008137693,584.052,0.008295976,584.052,0.009587867
582.564,0.008612053,582.564,0.007972956,582.564,0.008090035,582.564,0.007953288,582.564,0.008053431,582.564,0.009246222
580.927,0.008353261,580.927,0.007911053,580.927,0.008127064,580.927,0.007708221,580.927,0.008001168,580.927,0.009150086
579.438,0.008045388,579.438,0.00743077,579.438,0.007703636,579.438,0.007485413,579.438,0.007687273,579.438,0.008782791
577.948,0.008249355,577.948,0.007184945,577.948,0.007408204,577.948,0.007168891,577.948,0.007548625,577.948,0.008709998
576.458,0.007784825,576.458,0.007092737,576.458,0.007385085,576.458,0.006875216,576.458,0.007124813,576.458,0.008342337
574.967,0.007578864,574.967,0.006749893,574.967,0.006941021,574.967,0.006690242,574.967,0.006810762,574.967,0.008163489
573.475,0.007243137,573.475,0.006484378,573.475,0.006731726,573.475,0.006364605,573.475,0.006514491,573.475,0.00768174
571.983,0.007149075,571.983,0.006113633,571.983,0.006402564,571.983,0.006024671,571.983,0.006404534,571.983,0.007380556
570.491,0.006977163,570.491,0.005934415,570.491,0.005947222,570.491,0.005740319,570.491,0.005968006,570.491,0.007156786
568.998,0.00638541,568.998,0.00532157,568.998,0.005515819,568.998,0.00541639,568.998,0.005736857,568.998,0.006722472
567.504,0.005957955,567.504,0.005142468,567.504,0.005141892,567.504,0.004988395,567.504,0.005200676,567.504,0.006439187
566.01,0.005844362,566.01,0.004785508,566.01,0.004960822,566.01,0.004770171,566.01,0.004920502,566.01,0.006141147
564.515,0.005459273,564.515,0.004318026,564.515,0.004383916,564.515,0.004362029,564.515,0.004498566,564.515,0.005823242
563.02,0.004876939,563.02,0.003899469,563.02,0.00404396,563.02,0.003702887,563.02,0.003984836,563.02,0.005399144
561.524,0.004661414,561.524,0.003379507,561.524,0.003552715,561.524,0.003515422,561.524,0.003596276,561.524,0.004990647
560.028,0.004106019,560.028,0.003113776,560.028,0.003218704,560.028,0.003042188,560.028,0.003212992,560.028,0.004488732
558.531,0.003743068,558.531,0.002595795,558.531,0.00264736,558.531,0.002777184,558.531,0.002673744,558.531,0.004121463
557.033,0.003362759,557.033,0.002247921,557.033,0.002339704,557.033,0.002167291,557.033,0.002310738,557.033,0.003612407
555.535,0.002857796,555.535,0.001887819,555.535,0.001904381,555.535,0.001679983,555.535,0.001750126,555.535,0.003202092
554.037,0.002384393,554.037,0.001165525,554.037,0.001366597,554.037,0.00131142,554.037,0.001368882,554.037,0.002711798
552.538,0.002047091,552.538,0.000881587,552.538,0.00097181,552.538,0.000732102,552.538,0.001066127,552.538,0.002336529
551.038,0.001494506,551.038,0.00040305,551.038,0.000503437,551.038,0.00036771,551.038,0.000559601,551.038,0.001931057
549.538,0.000930458,549.538,-0.000231618,549.538,1.07428e-05,549.538,-0.000215473,549.538,5.37167e-05,549.538,0.001455234
548.038,0.000331078,548.038,-0.000709576,548.038,-0.000564878,548.038,-0.000821516,548.038,-0.000621336,548.038,0.000887734
546.536,-6.81E-05,546.536,-0.001012048,546.536,-0.00090894,546.536,-0.001059462,546.536,-0.000897109,546.536,0.000568414
545.035,-0.000255316,545.035,-0.001190261,545.035,-0.001077331,545.035,-0.001293922,545.035,-0.001153086,545.035,0.000375327
543.533,-0.000577546,543.533,-0.001516545,543.533,-0.001105837,543.533,-0.001557816,543.533,-0.001401997,543.533,-9.16E-06
542.03,-0.000833504,542.03,-0.001655355,542.03,-0.001155564,542.03,-0.001682689,542.03,-0.001499158,542.03,2.69215e-06
540.527,-0.000803378,540.527,-0.001592739,540.527,-0.001231873,540.527,-0.001446272,540.527,-0.001437861,540.527,9.18531e-05
539.023,-0.000713917,539.023,-0.00153099,539.023,-0.001142345,539.023,-0.001529649,539.023,-0.00133506,539.023,5.21375e-05
537.518,-0.000653336,537.518,-0.001234351,537.518,-0.001051612,537.518,-0.001305123,537.518,-0.001093392,537.518,0.000290926
536.014,-0.000318384,536.014,-0.000706733,536.014,-0.000628677,536.014,-0.000883572,536.014,-0.000685489,536.014,0.000715845
534.508,-3.25E-05,534.508,-0.000506345,534.508,-0.000191359,534.508,-0.000447028,534.508,-0.000192238,534.508,0.001264193
533.003,0.000526399,533.003,0.000269816,533.003,0.000451323,533.003,0.000282611,533.003,0.000393231,533.003,0.001938623
531.496,0.001302592,531.496,0.001003126,531.496,0.001439416,531.496,0.001082942,531.496,0.001376647,531.496,0.002739306
529.989,0.002454936,529.989,0.002292522,529.989,0.002628556,529.989,0.002315189,529.989,0.002614259,529.989,0.004054986
528.482,0.003426129,528.482,0.003420859,528.482,0.003668191,528.482,0.0033223,528.482,0.00366404,528.482,0.005187865
526.974,0.004045893,526.974,0.004223445,526.974,0.004572121,526.974,0.004208415,526.974,0.004487345,526.974,0.005869104
525.466,0.005474975,525.466,0.005624134,525.466,0.005977035,525.466,0.005740818,525.466,0.006034855,525.466,0.007500478
523.957,0.006985818,523.957,0.00693584,523.957,0.007304681,523.957,0.007390193,523.957,0.007140023,523.957,0.008854989
522.447,0.008264552,522.447,0.008314419,522.447,0.008703343,522.447,0.008268272,522.447,0.008876045,522.447,0.0101308
520.937,0.009456892,520.937,0.009550714,520.937,0.0100913,520.937,0.009719439,520.937,0.009923796,520.937,0.011709
519.427,0.0107796,519.427,0.01093787,519.427,0.01132158,519.427,0.0109547,519.427,0.0114999,519.427,0.0128797
518.067,0.0121885,518.067,0.0121141,518.067,0.0127312,518.067,0.0123477,518.067,0.0128884,518.067,0.014277
516.556,0.0133596,516.556,0.0134417,516.556,0.0137586,516.556,0.01372627,516.556,0.0137966,516.556,0.0156124
515.044,0.01436544,515.044,0.0143974,515.044,0.0148798,515.044,0.0146265,515.044,0.0151009,515.044,0.0165726
513.532,0.0156141,513.532,0.0157516,513.532,0.0160495,513.532,0.01571003,513.532,0.0159578,513.532,0.0175853
512.019,0.0166373,512.019,0.016859,512.019,0.0170648,512.019,0.0168346,512.019,0.0170062,512.019,0.0189852
510.505,0.0172708,510.505,0.0174413,510.505,0.0177201,510.505,0.01753,510.505,0.0178889,510.505,0.0197856
508.992,0.0182737,508.992,0.0183153,508.992,0.0185279,508.992,0.0182079,508.992,0.018805,508.992,0.0203339
507.477,0.0188401,507.477,0.019084,507.477,0.0193496,507.477,0.0188175,507.477,0.0194036,507.477,0.0210518
505.962,0.0193195,505.962,0.0194954,505.962,0.0199132,505.962,0.0195945,505.962,0.01996075,505.962,0.021602
504.447,0.0197846,504.447,0.0200056,504.447,0.0202269,504.447,0.0201018,504.447,0.020487,504.447,0.0221955
502.931,0.0202935,502.931,0.0203774,502.931,0.0207705,502.931,0.020499,502.931,0.0208208,502.931,0.0227536
501.567,0.0203845,501.567,0.0206102,501.567,0.0209246,501.567,0.0207165,501.567,0.0209246,501.567,0.02304988
500.05,0.0206563,500.05,0.0208854,500.05,0.0211267,500.05,0.02072042,500.05,0.0211731,500.05,0.0234362
498.533,0.02062209,498.533,0.0210042,498.533,0.0210511,498.533,0.020834,498.533,0.0210971,498.533,0.0233636
497.015,0.0206019,497.015,0.0208394,497.015,0.021143,497.015,0.02095053,497.015,0.0213212,497.015,0.0235305
495.497,0.0204679,495.497,0.0208236,495.497,0.0212116,495.497,0.0208354,495.497,0.0213165,495.497,0.0234692
493.978,0.020227,493.978,0.020597,493.978,0.0208278,493.978,0.02045,493.978,0.0208999,493.978,0.02320935
492.459,0.0199018,492.459,0.0202148,492.459,0.0204581,492.459,0.0199993,492.459,0.0206549,492.459,0.0235147
490.94,0.0200254,490.94,0.0202579,490.94,0.020643,490.94,0.0203393,490.94,0.0208318,490.94,0.02366231
489.572,0.0192333,489.572,0.0196958,489.572,0.0200978,489.572,0.0196389,489.572,0.020156,489.572,0.0231799
488.051,0.0189569,488.051,0.0190605,488.051,0.0195929,488.051,0.0191163,488.051,0.0198433,488.051,0.0230642
486.53,0.0185984,486.53,0.0189439,486.53,0.0192764,486.53,0.0189666,486.53,0.0196158,486.53,0.0227704
485.009,0.0180194,485.009,0.018386,485.009,0.0186695,485.009,0.0183916,485.009,0.0190522,485.009,0.0226726
483.487,0.0177214,483.487,0.0182628,483.487,0.0182506,483.487,0.01786335,483.487,0.0187044,483.487,0.0225395
481.965,0.01727722,481.965,0.0176677,481.965,0.0179355,481.965,0.0177224,481.965,0.0184332,481.965,0.0223783
480.442,0.0169131,480.442,0.0169781,480.442,0.0171947,480.442,0.0173829,480.442,0.0178471,480.442,0.0219409
479.071,0.0168458,479.071,0.01694347,479.071,0.017329,479.071,0.0171058,479.071,0.0178369,479.071,0.0221635
477.547,0.0168608,477.547,0.01696522,477.547,0.0171322,477.547,0.0173391,477.547,0.017678,477.547,0.0219597
476.023,0.0170862,476.023,0.0170636,476.023,0.0171747,476.023,0.0171886,476.023,0.0182267,476.023,0.0220878
474.499,0.0174515,474.499,0.0174452,474.499,0.01775709,474.499,0.0178791,474.499,0.0185583,474.499,0.0226753
472.973,0.0183009,472.973,0.0179353,472.973,0.0183897,472.973,0.0186937,472.973,0.019212,472.973,0.023586
471.448,0.019102,471.448,0.01889048,471.448,0.0194104,471.448,0.0193364,471.448,0.0204009,471.448,0.0245782
470.075,0.0198937,470.075,0.0198282,470.075,0.0207294,470.075,0.020351,470.075,0.0212902,470.075,0.0256224
468.548,0.0210072,468.548,0.0211508,468.548,0.02176699,468.548,0.0215351,468.548,0.0227283,468.548,0.02722354
467.021,0.0225026,467.021,0.022312,467.021,0.0231562,467.021,0.023001,467.021,0.024811,467.021,0.02912109
465.494,0.0238682,465.494,0.0238078,465.494,0.0242913,465.494,0.0245033,465.494,0.0259697,465.494,0.0307676
463.966,0.024805,463.966,0.0249427,463.966,0.0257293,463.966,0.02575314,463.966,0.0275627,463.966,0.0329003
462.438,0.0258875,462.438,0.0261725,462.438,0.0267944,462.438,0.0271076,462.438,0.02904835,462.438,0.0346081
461.062,0.0272504,461.062,0.02686788,461.062,0.0276054,461.062,0.0283623,461.062,0.0300768,461.062,0.0366176
459.533,0.0282406,459.533,0.0284985,459.533,0.0290763,459.533,0.0298384,459.533,0.0319692,459.533,0.0389051
458.004,0.0289246,458.004,0.029099,458.004,0.0301541,458.004,0.0308913,458.004,0.0332944,458.004,0.0413068
456.474,0.0295556,456.474,0.0297092,456.474,0.0309308,456.474,0.0313575,456.474,0.0345948,456.474,0.0434492
454.944,0.0302623,454.944,0.0306259,454.944,0.0316365,454.944,0.0324292,454.944,0.0359495,454.944,0.0463068
453.566,0.030798,453.566,0.0310318,453.566,0.0322889,453.566,0.03330119,453.566,0.037322,453.566,0.0486513
452.035,0.0312618,452.035,0.0318779,452.035,0.0328966,452.035,0.0340916,452.035,0.03889652,452.035,0.0516602
450.503,0.0317113,450.503,0.03205701,450.503,0.0335388,450.503,0.0348722,450.503,0.0402328,450.503,0.0544677
448.971,0.0320934,448.971,0.0323769,448.971,0.03389347,448.971,0.0356589,448.971,0.0415693,448.971,0.057808
447.439,0.03233891,447.439,0.0329243,447.439,0.0346257,447.439,0.03672656,447.439,0.0432662,447.439,0.06214375
446.059,0.0325587,446.059,0.033396,446.059,0.03503665,446.059,0.0374655,446.059,0.045263,446.059,0.0662087
444.526,0.03295451,444.526,0.0334415,444.526,0.0353941,444.526,0.0381552,444.526,0.0470217,444.526,0.07109528
442.992,0.0328053,442.992,0.0338919,442.992,0.0360187,442.992,0.0390304,442.992,0.0486045,442.992,0.0755496
441.458,0.0330478,441.458,0.0337792,441.458,0.0361091,441.458,0.0403579,441.458,0.0510586,441.458,0.0815407
439.923,0.0332906,439.923,0.0341515,439.923,0.03696765,439.923,0.0413684,439.923,0.0537101,439.923,0.0883879
438.542,0.0334018,438.542,0.0343161,438.542,0.0370403,438.542,0.0424621,438.542,0.0563281,438.542,0.0950544
437.007,0.0332749,437.007,0.0340867,437.007,0.037245,437.007,0.0431918,437.007,0.0587029,437.007,0.101768
435.471,0.0329574,435.471,0.0340129,435.471,0.0377793,435.471,0.0438925,435.471,0.0615983,435.471,0.110688
433.935,0.0328791,433.935,0.0343179,433.935,0.0380931,433.935,0.0453007,433.935,0.0655668,433.935,0.12176
432.552,0.0327592,432.552,0.0340207,432.552,0.0384714,432.552,0.0468013,432.552,0.0689992,432.552,0.13074
431.015,0.0329612,431.015,0.0341738,431.015,0.0394117,431.015,0.0485757,431.015,0.073361,431.015,0.141727
429.477,0.0330097,429.477,0.0342372,429.477,0.0395038,429.477,0.0499675,429.477,0.0776159,429.477,0.153655
427.939,0.03283849,427.939,0.0343907,427.939,0.0401447,427.939,0.0519251,427.939,0.0835452,427.939,0.169298
426.555,0.0331385,426.555,0.0346373,426.555,0.0405211,426.555,0.0541348,426.555,0.0889077,426.555,0.18345
425.016,0.033199,425.016,0.0350691,425.016,0.0420223,425.016,0.0564361,425.016,0.0951219,425.016,0.199888
423.477,0.033023,423.477,0.0351096,423.477,0.0423772,423.477,0.058856,423.477,0.101119,423.477,0.217101
421.938,0.0325942,421.938,0.0350315,421.938,0.0428274,421.938,0.0608051,421.938,0.107449,421.938,0.23417
420.552,0.0328535,420.552,0.0354054,420.552,0.0443305,420.552,0.0643088,420.552,0.115157,420.552,0.254085
419.012,0.0329755,419.012,0.0358242,419.012,0.0453294,419.012,0.0678232,419.012,0.124418,419.012,0.278128
417.471,0.0331224,417.471,0.0361195,417.471,0.04608088,417.471,0.0709606,417.471,0.132396,417.471,0.30105
415.93,0.0332234,415.93,0.0361809,415.93,0.0474962,415.93,0.0742402,415.93,0.141161,415.93,0.32343
414.543,0.0334267,414.543,0.0367352,414.543,0.0481863,414.543,0.0776501,414.543,0.151032,414.543,0.350081
413.001,0.0331129,413.001,0.0368936,413.001,0.0495538,413.001,0.0823501,413.001,0.163011,413.001,0.382184
411.459,0.0330812,411.459,0.0371727,411.459,0.0510221,411.459,0.0863505,411.459,0.173797,411.459,0.411314
410.071,0.0332722,410.071,0.0375302,410.071,0.0522832,410.071,0.0905323,410.071,0.183799,410.071,0.437881
408.528,0.03299062,408.528,0.03775543,408.528,0.0535599,408.528,0.09461575,408.528,0.195396,408.528,0.470068
406.985,0.0329825,406.985,0.0380454,406.985,0.0552056,406.985,0.0993935,406.985,0.209518,406.985,0.505865
405.441,0.0328756,405.441,0.0382503,405.441,0.0570227,405.441,0.104583,405.441,0.222963,405.441,0.54344
404.051,0.0330084,404.051,0.0386903,404.051,0.0581346,404.051,0.10952,404.051,0.234969,404.051,0.57542
402.507,0.0326276,402.507,0.03883421,402.507,0.0592149,402.507,0.114548,402.507,0.246913,402.507,0.608757
400.962,0.03290645,400.962,0.03931703,400.962,0.0609278,400.962,0.119712,400.962,0.262152,400.962,0.647733
399.571,0.0333103,399.571,0.0396819,399.571,0.062888,399.571,0.1252,399.571,0.275789,399.571,0.686205
398.026,0.0336111,398.026,0.04075437,398.026,0.0652235,398.026,0.131776,398.026,0.292175,398.026,0.727888
396.48,0.0337188,396.48,0.04129231,396.48,0.06738352,396.48,0.137387,396.48,0.307569,396.48,0.768597
394.933,0.0336577,394.933,0.0419513,394.933,0.0691094,394.933,0.143358,394.933,0.321313,394.933,0.805957
393.541,0.0341935,393.541,0.0428948,393.541,0.0713766,393.541,0.149328,393.541,0.337701,393.541,0.847484
391.994,0.0344614,391.994,0.0440206,391.994,0.0741517,391.994,0.156135,391.994,0.354037,391.994,0.891974
390.447,0.0349725,390.447,0.0451834,390.447,0.0764342,390.447,0.16326,390.447,0.370463,390.447,0.932488
389.054,0.0354344,389.054,0.04615302,389.054,0.0791417,389.054,0.16961,389.054,0.386152,389.054,0.973381
387.506,0.0363735,387.506,0.0474544,387.506,0.0818273,387.506,0.175926,387.506,0.400497,387.506,1.01284
385.957,0.037042,385.957,0.0489847,385.957,0.0852127,385.957,0.183814,385.957,0.419769,385.957,1.05788
384.563,0.038083,384.563,0.051181,384.563,0.0874514,384.563,0.192041,384.563,0.436019,384.563,1.09948
383.014,0.0393836,383.014,0.0528208,383.014,0.0915529,383.014,0.19985,383.014,0.453397,383.014,1.14287
381.464,0.0405713,381.464,0.054825,381.464,0.0947965,381.464,0.20733,381.464,0.469833,381.464,1.18598
380.069,0.0419392,380.069,0.0570253,380.069,0.0982478,380.069,0.214667,380.069,0.486912,380.069,1.22203
378.519,0.0438602,378.519,0.0597324,378.519,0.103624,378.519,0.224937,378.519,0.508201,378.519,1.27447
376.968,0.045699,376.968,0.0627057,376.968,0.108069,376.968,0.235109,376.968,0.527919,376.968,1.32383
375.573,0.0476351,375.573,0.0654032,375.573,0.112962,375.573,0.243983,375.573,0.547857,375.573,1.36344
374.021,0.0494935,374.021,0.0689485,374.021,0.118472,374.021,0.256144,374.021,0.570088,374.021,1.41606
372.47,0.0518568,372.47,0.0720436,372.47,0.124518,372.47,0.267866,372.47,0.594351,372.47,1.46734
371.073,0.054106,371.073,0.0761053,371.073,0.131485,371.073,0.281277,371.073,0.619067,371.073,1.52329
369.52,0.0570195,369.52,0.0808056,369.52,0.140208,369.52,0.298394,369.52,0.650889,369.52,1.59075
367.968,0.0597415,367.968,0.0851887,367.968,0.14846,367.968,0.313635,367.968,0.681403,367.968,1.65723
366.57,0.0623487,366.57,0.0900515,366.57,0.156713,366.57,0.330197,366.57,0.710681,366.57,1.71886
365.016,0.0656143,365.016,0.0959391,365.016,0.168233,365.016,0.352298,365.016,0.753764,365.016,1.80638
363.463,0.0694011,363.463,0.103204,363.463,0.182564,363.463,0.380388,363.463,0.806929,363.463,1.91314
362.064,0.0724544,362.064,0.108719,362.064,0.192868,362.064,0.401002,362.064,0.847483,362.064,1.99488
360.51,0.0759873,360.51,0.116595,360.51,0.209244,360.51,0.433318,360.51,0.907736,360.51,2.11985
358.955,0.0800949,358.955,0.125398,358.955,0.227854,358.955,0.470718,358.955,0.978424,358.955,2.2603
357.555,0.0841236,357.555,0.133794,357.555,0.245251,357.555,0.50531,357.555,1.04215,357.555,2.38345
356,0.090335,356,0.146621,356,0.27209,356,0.557772,356,1.1452,356,2.58085
354.444,0.0961998,354.444,0.159119,354.444,0.299811,354.444,0.611287,354.444,1.24487,354.444,2.80583
353.044,0.101894,353.044,0.171388,353.044,0.324909,353.044,0.662165,353.044,1.34451,353.044,3.09735
351.487,0.108198,351.487,0.185834,351.487,0.35755,351.487,0.725964,351.487,1.46594,351.487,3.35981
349.93,0.11701,349.93,0.205787,349.93,0.399367,349.93,0.811773,349.93,1.63531,349.93,3.89798
348.529,0.125386,348.529,0.22421,348.529,0.439162,348.529,0.892452,348.529,1.78412,348.529,10
346.972,0.134145,346.972,0.243177,346.972,0.4793697,346.972,0.975699,346.972,1.94553,346.972,10
345.57,0.142871,345.57,0.262093,345.57,0.521924,345.57,1.05441,345.57,2.10974,345.57,10
344.012,0.151298,344.012,0.282044,344.012,0.564585,344.012,1.13803,344.012,2.28284,344.012,10
342.453,0.160953,342.453,0.303359,342.453,0.611859,342.453,1.2363,342.453,2.43272,342.453,10
341.05,0.168819,341.05,0.321529,341.05,0.651721,341.05,1.31245,341.05,2.60199,341.05,10
339.491,0.176212,339.491,0.337993,339.491,0.686433,339.491,1.38241,339.491,2.67581,339.491,4.2772
337.932,0.182067,337.932,0.351002,337.932,0.716258,337.932,1.44588,337.932,2.85125,337.932,5.49408
336.529,0.187171,336.529,0.363286,336.529,0.742097,336.529,1.49564,336.529,2.98645,336.529,10
334.969,0.193174,334.969,0.377383,334.969,0.774862,334.969,1.56326,334.969,3.12304,334.969,10
333.564,0.197834,333.564,0.38893,333.564,0.798367,333.564,1.60818,333.564,3.22353,333.564,10
332.004,0.202422,332.004,0.39903,332.004,0.82108,332.004,1.65286,332.004,3.27764,332.004,10
330.443,0.20641,330.443,0.408559,330.443,0.843943,330.443,1.69909,330.443,3.43566,330.443,10
329.038,0.210096,329.038,0.416419,329.038,0.860427,329.038,1.73102,329.038,3.50401,329.038,10
327.476,0.213808,327.476,0.425696,327.476,0.878787,327.476,1.76175,327.476,3.30544,327.476,10
326.071,0.216232,326.071,0.431677,326.071,0.894396,326.071,1.79607,326.071,3.5056,326.071,10
324.509,0.217993,324.509,0.435502,324.509,0.90379,324.509,1.81231,324.509,3.69062,324.509,10
322.946,0.218551,322.946,0.436963,322.946,0.907189,322.946,1.82672,322.946,3.4705,322.946,5.02302
321.54,0.217816,321.54,0.436319,321.54,0.90495,321.54,1.81271,321.54,3.4192,321.54,10
319.977,0.216165,319.977,0.432476,319.977,0.897119,319.977,1.79456,319.977,3.55542,319.977,10
318.57,0.214157,318.57,0.427492,318.57,0.885271,318.57,1.76843,318.57,3.48222,318.57,10
317.007,0.210947,317.007,0.421271,317.007,0.870671,317.007,1.74181,317.007,3.45736,317.007,10
315.443,0.207401,315.443,0.413166,315.443,0.8543,315.443,1.70488,315.443,3.40561,315.443,10
314.035,0.204512,314.035,0.406161,314.035,0.838415,314.035,1.66914,314.035,3.2386,314.035,10
312.471,0.199862,312.471,0.395888,312.471,0.816216,312.471,1.62286,312.471,3.12193,312.471,10
311.062,0.195298,311.062,0.385537,311.062,0.793728,311.062,1.57472,311.062,3.04459,311.062,10
309.497,0.190012,309.497,0.37401,309.497,0.768083,309.497,1.52144,309.497,2.92351,309.497,10
307.932,0.18561,307.932,0.362767,307.932,0.742742,307.932,1.46622,307.932,2.77037,307.932,10
306.523,0.180796,306.523,0.350785,306.523,0.716552,306.523,1.40791,306.523,2.66301,306.523,10
304.957,0.174091,304.957,0.335099,304.957,0.682629,304.957,1.34058,304.957,2.53235,304.957,10
303.548,0.168063,303.548,0.321373,303.548,0.6539,303.548,1.28172,303.548,2.45184,303.548,10
301.981,0.162533,301.981,0.30818,301.981,0.625887,301.981,1.22476,301.981,2.33694,301.981,10
300.571,0.156934,300.571,0.295191,300.571,0.597561,300.571,1.16551,300.571,2.21779,300.571,10
299.004,0.15117,299.004,0.281386,299.004,0.568172,299.004,1.1069,299.004,2.09683,299.004,4.23542
297.437,0.146127,297.437,0.268874,297.437,0.539841,297.437,1.04716,297.437,1.9774,297.437,4.50301
296.026,0.139934,296.026,0.255003,296.026,0.509026,296.026,0.984346,296.026,1.85249,296.026,3.62548
294.458,0.135652,294.458,0.2435,294.458,0.483301,294.458,0.931266,294.458,1.75297,294.458,3.30539
293.047,0.131389,293.047,0.232631,293.047,0.459333,293.047,0.881022,293.047,1.66088,293.047,3.23169
291.479,0.127417,291.479,0.222274,291.479,0.436734,291.479,0.836771,291.479,1.57326,291.479,3.03082
290.067,0.124169,290.067,0.213395,290.067,0.416752,290.067,0.796874,290.067,1.49804,290.067,2.89052
288.498,0.120222,288.498,0.202225,288.498,0.393611,288.498,0.751431,288.498,1.42615,288.498,2.77983
286.929,0.118061,286.929,0.195136,286.929,0.379052,286.929,0.725834,286.929,1.38817,286.929,2.74339
285.517,0.116362,285.517,0.189918,285.517,0.368358,285.517,0.709521,285.517,1.37318,285.517,2.73787
283.947,0.115183,283.947,0.185451,283.947,0.35969,283.947,0.700732,283.947,1.37956,283.947,2.79754
282.534,0.114117,282.534,0.182373,282.534,0.354069,282.534,0.698896,282.534,1.39954,282.534,2.87045
280.964,0.114175,280.964,0.180222,280.964,0.349653,280.964,0.703285,280.964,1.44112,280.964,3.02685
279.551,0.114226,279.551,0.179189,279.551,0.346214,279.551,0.706092,279.551,1.46594,279.551,3.14325
277.98,0.114549,277.98,0.17879,277.98,0.342319,277.98,0.706398,277.98,1.47908,277.98,3.25096
276.566,0.115699,276.566,0.179804,276.566,0.340328,276.566,0.70706,276.566,1.48518,276.566,3.32365
274.995,0.118226,274.995,0.183724,274.995,0.342908,274.995,0.716406,274.995,1.50328,274.995,3.33515
273.423,0.123315,273.423,0.193792,273.423,0.359964,273.423,0.753534,273.423,1.56912,273.423,3.7252
272.009,0.129243,272.009,0.206454,272.009,0.385971,272.009,0.803062,272.009,1.66167,272.009,3.8071
270.437,0.141486,270.437,0.233053,270.437,0.440341,270.437,0.907775,270.437,1.85306,270.437,10
269.022,0.154259,269.022,0.263174,269.022,0.506929,269.022,1.0398,269.022,2.07473,269.022,10
267.449,0.168823,267.449,0.297908,267.449,0.582251,267.449,1.18182,267.449,2.33988,267.449,10
266.034,0.181915,266.034,0.32833,266.034,0.650087,266.034,1.31242,266.034,2.56,266.034,10
264.461,0.189391,264.461,0.349418,264.461,0.700064,264.461,1.40618,264.461,2.73427,264.461,10
263.045,0.190097,263.045,0.35349,263.045,0.711677,263.045,1.42869,263.045,2.76718,263.045,10
261.472,0.187929,261.472,0.350358,261.472,0.707452,261.472,1.41811,261.472,2.73977,261.472,10
260.055,0.185199,260.055,0.34494,260.055,0.697064,260.055,1.39375,260.055,2.69468,260.055,10
258.481,0.179035,258.481,0.333393,258.481,0.673687,258.481,1.3402,258.481,2.55942,258.481,10
257.065,0.173962,257.065,0.322705,257.065,0.652609,257.065,1.29428,257.065,2.46602,257.065,4.90754
255.49,0.166959,255.49,0.308617,255.49,0.624418,255.49,1.23212,255.49,2.33783,255.49,4.32849
254.073,0.159252,254.073,0.292573,254.073,0.589658,254.073,1.16252,254.073,2.19281,254.073,5.28912
252.498,0.152259,252.498,0.276993,252.498,0.557379,252.498,1.09536,252.498,2.06782,252.498,4.20823
250.923,0.141792,250.923,0.2533,250.923,0.504838,250.923,0.988753,250.923,1.85981,250.923,3.90007
249.508,0.133499,249.508,0.234776,249.508,0.463811,249.508,0.90301,249.508,1.69996,249.508,3.5251
247.942,0.126476,247.942,0.218077,247.942,0.427405,247.942,0.829142,247.942,1.56358,247.942,3.13851
246.533,0.122249,246.533,0.206335,246.533,0.401345,246.533,0.77199,246.533,1.45823,246.533,2.93563
244.966,0.117371,244.966,0.193562,244.966,0.3692725,244.966,0.708019,244.966,1.33659,244.966,2.70176
243.556,0.114147,243.556,0.183185,243.556,0.343043,243.556,0.654904,243.556,1.23972,243.556,2.50164
241.989,0.112663,241.989,0.175965,241.989,0.323729,241.989,0.614538,241.989,1.16569,241.989,2.36418
240.578,0.11462,240.578,0.174666,240.578,0.315579,240.578,0.595645,240.578,1.1332,240.578,2.32622
239.011,0.1185591,239.011,0.178438,239.011,0.317338,239.011,0.597015,239.011,1.13845,239.011,2.34554
237.443,0.127279,237.443,0.18951,237.443,0.334096,237.443,0.625385,237.443,1.19935,237.443,2.48364
236.032,0.139541,236.032,0.207091,236.032,0.365195,236.032,0.686289,236.032,1.3166,236.032,2.72476
234.464,0.160439,234.464,0.240225,234.464,0.430727,234.464,0.803222,234.464,1.53856,234.464,3.26087
233.052,0.185237,233.052,0.285934,233.052,0.513288,233.052,0.972795,233.052,1.83825,233.052,5.39671
231.484,0.218357,231.484,0.339834,231.484,0.623896,231.484,1.17485,231.484,2.24163,231.484,10
230.072,0.248867,230.072,0.398273,230.072,0.737578,230.072,1.40225,230.072,2.63654,230.072,10
228.503,0.280922,228.503,0.453278,228.503,0.846442,228.503,1.61494,228.503,3.06629,228.503,10
226.934,0.318277,226.934,0.509542,226.934,0.946179,226.934,1.7953,226.934,3.41032,226.934,10
225.521,0.348126,225.521,0.558219,225.521,1.02871,225.521,1.96108,225.521,3.69811,225.521,10
223.952,0.383357,223.952,0.61004,223.952,1.13001,223.952,2.1367,223.952,3.78429,223.952,10
222.539,0.415982,222.539,0.655263,222.539,1.2182,222.539,2.29906,222.539,4.12633,222.539,10
220.969,0.459162,220.969,0.717775,220.969,1.32944,220.969,2.54385,220.969,3.81675,220.969,10
219.555,0.504225,219.555,0.78524,219.555,1.44456,219.555,2.70477,219.555,3.66605,219.555,4.41184
217.985,0.559271,217.985,0.867738,217.985,1.58533,217.985,2.89609,217.985,3.65728,217.985,4.09848
216.572,0.615273,216.572,0.950122,216.572,1.73173,216.572,3.04024,216.572,3.79768,216.572,3.94783
215.001,0.692578,215.001,1.07028,215.001,1.94538,215.001,3.48018,215.001,3.76983,215.001,10
213.43,0.780529,213.43,1.22345,213.43,2.18241,213.43,3.47696,213.43,3.68051,213.43,3.86951
212.016,0.871429,212.016,1.35445,212.016,2.42483,212.016,3.49071,212.016,3.61423,212.016,4.16916
210.444,0.987071,210.444,1.52384,210.444,2.67191,210.444,4.2041,210.444,4.13093,210.444,10
209.03,1.09858,209.03,1.66234,209.03,2.77268,209.03,3.73173,209.03,3.83407,209.03,3.88616
207.458,1.23846,207.458,1.84074,207.458,3.05387,207.458,4.39006,207.458,10,207.458,10
206.043,1.41346,206.043,2.02773,206.043,3.22961,206.043,3.63605,206.043,3.9505,206.043,3.76693
204.471,1.70739,204.471,2.33342,204.471,3.41401,204.471,3.66014,204.471,3.76594,204.471,4.00331
203.056,2.04265,203.056,2.59777,203.056,3.22281,203.056,3.60437,203.056,3.64224,203.056,3.69655
201.483,2.40582,201.483,2.84911,201.483,3.22747,201.483,3.73235,201.483,3.59092,201.483,3.67471
200.068,2.7621,200.068,3.06918,200.068,3.29941,200.068,3.61101,200.068,3.52279,200.068,4.15425
,,,,,,,,,,,
,,,,,,,,,,mbg_3_146_250uM,
,,,,,,,,,,mbg_3_146_250uM,
,,,,,,,,,,Collection Time: 3/14/2024 4:01:19 PM,
,,,,,,,,,,Operator Name  :,
,,,,,,,,,,Scan Software Version: 3.00(339),
,,,,,,,,,,Parameter List :,
,,,,,,,,,,Instrument                        Cary 50,
,,,,,,,,,,Instrument Version                3.00,
,,,,,,,,,,Start (nm)                        800.0,
,,,,,,,,,,Stop (nm)                         200.0,
,,,,,,,,,,X Mode                            Nanometers,
,,,,,,,,,,Y Mode                            Abs,
,,,,,,,,,,UV-Vis Scan Rate (nm/min)         300.00,
,,,,,,,,,,UV-Vis Data Interval (nm)         0.50,
,,,,,,,,,,UV-Vis Ave. Time (sec)            0.1000,
,,,,,,,,,,Beam Mode                         Dual Beam,
,,,,,,,,,,Baseline Correction               Off,
,,,,,,,,,,Cycle Mode                        Off,
,,,,,,,,,,Comments,
,,,,,,,,,,Method Log     :,
,,,,,,,,,,Method Name    :,
,,,,,,,,,,Date/Time stamp: 3/8/2024 4:34:39 PM,
,,,,,,,,,,Method Modifications:,
 New:0.1000,,,,,,,,,,UVVIS SAT Changed: 3/14/2024 3:37:37 PM, Old:0.0125
 New:0.1000,,,,,,,,,,Common SAT Changed: 3/14/2024 3:37:37 PM, Old:0.0125
 New:     0.50,,,,,,,,,,Common Interval nm Changed: 3/14/2024 3:37:38 PM, Old:     5.00
,,,,,,,,,,End Method Modifications,
,,,,,,,,,,<Current Wavelength> ,200.5
,,,,,,,,,,,
,,,,,,,,,,mbg_3_146_7uM,
,,,,,,,,,,mbg_3_146_7uM,
,,,,,,,,,,Collection Time: 3/14/2024 3:39:06 PM,
,,,,,,,,,,Operator Name  :,
,,,,,,,,,,Scan Software Version: 3.00(339),
,,,,,,,,,,Parameter List :,
,,,,,,,,,,Instrument                        Cary 50,
,,,,,,,,,,Instrument Version                3.00,
,,,,,,,,,,Start (nm)                        800.0,
,,,,,,,,,,Stop (nm)                         200.0,
,,,,,,,,,,X Mode                            Nanometers,
,,,,,,,,,,Y Mode                            Abs,
,,,,,,,,,,UV-Vis Scan Rate (nm/min)         300.00,
,,,,,,,,,,UV-Vis Data Interval (nm)         0.50,
,,,,,,,,,,UV-Vis Ave. Time (sec)            0.1000,
,,,,,,,,,,Beam Mode                         Dual Beam,
,,,,,,,,,,Baseline Correction               Off,
,,,,,,,,,,Cycle Mode                        Off,
,,,,,,,,,,Comments,
,,,,,,,,,,Method Log     :,
,,,,,,,,,,Method Name    :,
,,,,,,,,,,Date/Time stamp: 3/8/2024 4:34:39 PM,
,,,,,,,,,,Method Modifications:,
 New:0.1000,,,,,,,,,,UVVIS SAT Changed: 3/14/2024 3:37:37 PM, Old:0.0125
 New:0.1000,,,,,,,,,,Common SAT Changed: 3/14/2024 3:37:37 PM, Old:0.0125
 New:     0.50,,,,,,,,,,Common Interval nm Changed: 3/14/2024 3:37:38 PM, Old:     5.00
,,,,,,,,,,End Method Modifications,
,,,,,,,,,,<Current Wavelength> ,200.5
,,,,,,,,,,,
,,,,,,,,,,mbg_3_146_15uM,
,,,,,,,,,,mbg_3_146_15uM,
,,,,,,,,,,Collection Time: 3/14/2024 3:42:23 PM,
,,,,,,,,,,Operator Name  :,
,,,,,,,,,,Scan Software Version: 3.00(339),
,,,,,,,,,,Parameter List :,
,,,,,,,,,,Instrument                        Cary 50,
,,,,,,,,,,Instrument Version                3.00,
,,,,,,,,,,Start (nm)                        800.0,
,,,,,,,,,,Stop (nm)                         200.0,
,,,,,,,,,,X Mode                            Nanometers,
,,,,,,,,,,Y Mode                            Abs,
,,,,,,,,,,UV-Vis Scan Rate (nm/min)         300.00,
,,,,,,,,,,UV-Vis Data Interval (nm)         0.50,
,,,,,,,,,,UV-Vis Ave. Time (sec)            0.1000,
,,,,,,,,,,Beam Mode                         Dual Beam,
,,,,,,,,,,Baseline Correction               Off,
,,,,,,,,,,Cycle Mode                        Off,
,,,,,,,,,,Comments,
,,,,,,,,,,Method Log     :,
,,,,,,,,,,Method Name    :,
,,,,,,,,,,Date/Time stamp: 3/8/2024 4:34:39 PM,
,,,,,,,,,,Method Modifications:,
 New:0.1000,,,,,,,,,,UVVIS SAT Changed: 3/14/2024 3:37:37 PM, Old:0.0125
 New:0.1000,,,,,,,,,,Common SAT Changed: 3/14/2024 3:37:37 PM, Old:0.0125
 New:     0.50,,,,,,,,,,Common Interval nm Changed: 3/14/2024 3:37:38 PM, Old:     5.00
,,,,,,,,,,End Method Modifications,
,,,,,,,,,,<Current Wavelength> ,200.5
,,,,,,,,,,,
,,,,,,,,,,mbg_3_146_31uM,
,,,,,,,,,,mbg_3_146_31uM,
,,,,,,,,,,Collection Time: 3/14/2024 3:45:25 PM,
,,,,,,,,,,Operator Name  :,
,,,,,,,,,,Scan Software Version: 3.00(339),
,,,,,,,,,,Parameter List :,
,,,,,,,,,,Instrument                        Cary 50,
,,,,,,,,,,Instrument Version                3.00,
,,,,,,,,,,Start (nm)                        800.0,
,,,,,,,,,,Stop (nm)                         200.0,
,,,,,,,,,,X Mode                            Nanometers,
,,,,,,,,,,Y Mode                            Abs,
,,,,,,,,,,UV-Vis Scan Rate (nm/min)         300.00,
,,,,,,,,,,UV-Vis Data Interval (nm)         0.50,
,,,,,,,,,,UV-Vis Ave. Time (sec)            0.1000,
,,,,,,,,,,Beam Mode                         Dual Beam,
,,,,,,,,,,Baseline Correction               Off,
,,,,,,,,,,Cycle Mode                        Off,
,,,,,,,,,,Comments,
,,,,,,,,,,Method Log     :,
,,,,,,,,,,Method Name    :,
,,,,,,,,,,Date/Time stamp: 3/8/2024 4:34:39 PM,
,,,,,,,,,,Method Modifications:,
 New:0.1000,,,,,,,,,,UVVIS SAT Changed: 3/14/2024 3:37:37 PM, Old:0.0125
 New:0.1000,,,,,,,,,,Common SAT Changed: 3/14/2024 3:37:37 PM, Old:0.0125
 New:     0.50,,,,,,,,,,Common Interval nm Changed: 3/14/2024 3:37:38 PM, Old:     5.00
,,,,,,,,,,End Method Modifications,
,,,,,,,,,,<Current Wavelength> ,200.5
,,,,,,,,,,,
,,,,,,,,,,mbg_3_146_62uM,
,,,,,,,,,,mbg_3_146_62uM,
,,,,,,,,,,Collection Time: 3/14/2024 3:48:25 PM,
,,,,,,,,,,Operator Name  :,
,,,,,,,,,,Scan Software Version: 3.00(339),
,,,,,,,,,,Parameter List :,
,,,,,,,,,,Instrument                        Cary 50,
,,,,,,,,,,Instrument Version                3.00,
,,,,,,,,,,Start (nm)                        800.0,
,,,,,,,,,,Stop (nm)                         200.0,
,,,,,,,,,,X Mode                            Nanometers,
,,,,,,,,,,Y Mode                            Abs,
,,,,,,,,,,UV-Vis Scan Rate (nm/min)         300.00,
,,,,,,,,,,UV-Vis Data Interval (nm)         0.50,
,,,,,,,,,,UV-Vis Ave. Time (sec)            0.1000,
,,,,,,,,,,Beam Mode                         Dual Beam,
,,,,,,,,,,Baseline Correction               Off,
,,,,,,,,,,Cycle Mode                        Off,
,,,,,,,,,,Comments,
,,,,,,,,,,Method Log     :,
,,,,,,,,,,Method Name    :,
,,,,,,,,,,Date/Time stamp: 3/8/2024 4:34:39 PM,
,,,,,,,,,,Method Modifications:,
 New:0.1000,,,,,,,,,,UVVIS SAT Changed: 3/14/2024 3:37:37 PM, Old:0.0125
 New:0.1000,,,,,,,,,,Common SAT Changed: 3/14/2024 3:37:37 PM, Old:0.0125
 New:     0.50,,,,,,,,,,Common Interval nm Changed: 3/14/2024 3:37:38 PM, Old:     5.00
,,,,,,,,,,End Method Modifications,
,,,,,,,,,,<Current Wavelength> ,200.5
,,,,,,,,,,,
,,,,,,,,,,mbg_3_146_125uM,
,,,,,,,,,,mbg_3_146_125uM,
,,,,,,,,,,Collection Time: 3/14/2024 3:58:04 PM,
,,,,,,,,,,Operator Name  :,
,,,,,,,,,,Scan Software Version: 3.00(339),
,,,,,,,,,,Parameter List :,
,,,,,,,,,,Instrument                        Cary 50,
,,,,,,,,,,Instrument Version                3.00,
,,,,,,,,,,Start (nm)                        800.0,
,,,,,,,,,,Stop (nm)                         200.0,
,,,,,,,,,,X Mode                            Nanometers,
,,,,,,,,,,Y Mode                            Abs,
,,,,,,,,,,UV-Vis Scan Rate (nm/min)         300.00,
,,,,,,,,,,UV-Vis Data Interval (nm)         0.50,
,,,,,,,,,,UV-Vis Ave. Time (sec)            0.1000,
,,,,,,,,,,Beam Mode                         Dual Beam,
,,,,,,,,,,Baseline Correction               Off,
,,,,,,,,,,Cycle Mode                        Off,
,,,,,,,,,,Comments,
,,,,,,,,,,Method Log     :,
,,,,,,,,,,Method Name    :,
,,,,,,,,,,Date/Time stamp: 3/8/2024 4:34:39 PM,
,,,,,,,,,,Method Modifications:,
 New:0.1000,,,,,,,,,,UVVIS SAT Changed: 3/14/2024 3:37:37 PM, Old:0.0125
 New:0.1000,,,,,,,,,,Common SAT Changed: 3/14/2024 3:37:37 PM, Old:0.0125
 New:     0.50,,,,,,,,,,Common Interval nm Changed: 3/14/2024 3:37:38 PM, Old:     5.00
,,,,,,,,,,End Method Modifications,
,,,,,,,,,,<Current Wavelength> ,200.5