File: silicates_UV_vis/Allylsilicates_plot/mbg_3_127_is.csv
is_2_1_7uM,,mbg_3_127_5_15uM,,mbg_3_127_5_31uM1,,mbg_3_127_5_62uM3,,mbg_3_127_5_125uM2,,mbg_3_127_5_250uM,
Wavelength (nm),Abs,Wavelength (nm),Abs,Wavelength (nm),Abs,Wavelength (nm),Abs,Wavelength (nm),Abs,Wavelength (nm),Abs
799.953,-0.000884296,799.953,-0.00059285,799.953,0.000132608,799.953,0.009366713,799.953,0.009054394,799.953,-0.000893027
798.565,-0.00095218,798.565,-0.000597503,798.565,0.000294475,798.565,0.009998277,798.565,0.008492167,798.565,-0.000117558
797.037,-0.000973825,797.037,-0.001225471,797.037,-0.000205589,797.037,0.009271951,797.037,0.00799608,797.037,-0.000161654
795.509,-0.001546983,795.509,-0.001460358,795.509,-1.19E-05,795.509,0.009102343,795.509,0.008008973,795.509,-0.001051663
793.979,-0.001156855,793.979,-0.001197438,793.979,-0.000673755,793.979,0.009609913,793.979,0.008040879,793.979,-0.001115855
792.449,-0.001256549,792.449,-0.00156999,792.449,-0.000720378,792.449,0.008724577,792.449,0.008178814,792.449,-0.001150969
791.057,-0.002453363,791.057,-0.001477179,791.057,-0.000849988,791.057,0.008249355,791.057,0.007596856,791.057,-0.001121846
789.524,-0.002164669,789.524,-0.00216472,789.524,-0.001667063,789.524,0.008094571,789.524,0.007463318,789.524,-0.002210514
787.991,-0.002441574,787.991,-0.002041325,787.991,-0.001994277,787.991,0.007656605,787.991,0.006793223,787.991,-0.001958046
786.457,-0.002845312,786.457,-0.002665565,786.457,-0.002179041,786.457,0.00738182,786.457,0.006517329,786.457,-0.002762084
785.062,-0.002709299,785.062,-0.002704103,785.062,-0.00236831,785.062,0.007592061,785.062,0.006440842,785.062,-0.002595786
783.526,-0.00237315,783.526,-0.00269371,783.526,-0.002624038,783.526,0.007574517,783.526,0.006498173,783.526,-0.002639476
781.989,-0.002857398,781.989,-0.002824275,781.989,-0.002422937,781.989,0.007078187,781.989,0.006226194,781.989,-0.002410272
780.451,-0.003218458,780.451,-0.002914125,780.451,-0.002156787,780.451,0.006925634,780.451,0.006305243,780.451,-0.002782455
779.053,-0.003046886,779.053,-0.00314404,779.053,-0.002653576,779.053,0.007240532,779.053,0.006217791,779.053,-0.004035402
777.513,-0.003265066,777.513,-0.003337769,777.513,-0.002782558,777.513,0.007428532,777.513,0.006106913,777.513,-0.003111966
775.973,-0.003280122,775.973,-0.00324703,775.973,-0.003197697,775.973,0.007109683,775.973,0.005582808,775.973,-0.003235468
774.432,-0.003594571,774.432,-0.003481391,774.432,-0.003346913,774.432,0.006864013,774.432,0.005774682,774.432,-0.003633797
773.03,-0.003497928,773.03,-0.003404244,773.03,-0.00330237,773.03,0.006386014,773.03,0.005536793,773.03,-0.003411641
771.487,-0.003546817,771.487,-0.003925621,771.487,-0.003654435,771.487,0.00670817,771.487,0.005849767,771.487,-0.003948811
769.943,-0.003842703,769.943,-0.003560938,769.943,-0.003930649,769.943,0.006253085,769.943,0.005360355,769.943,-0.00403689
768.539,-0.004159565,768.539,-0.003960559,768.539,-0.003712033,768.539,0.006195498,768.539,0.005258551,768.539,-0.004091616
766.993,-0.004667386,766.993,-0.004158078,766.993,-0.00444294,766.993,0.005969791,766.993,0.004873457,766.993,-0.004318038
765.447,-0.004545827,765.447,-0.004554332,765.447,-0.004303992,765.447,0.005867791,765.447,0.004699853,765.447,-0.004620416
764.04,-0.004535735,764.04,-0.004487316,764.04,-0.004420545,764.04,0.00576099,764.04,0.004776034,764.04,-0.004561043
762.492,-0.004962458,762.492,-0.004760952,762.492,-0.004879942,762.492,0.005291801,762.492,0.004272824,762.492,-0.004848713
760.943,-0.005156299,760.943,-0.005164638,760.943,-0.004768172,760.943,0.005493588,760.943,0.004600087,760.943,-0.004974793
759.534,-0.00544291,759.534,-0.005472614,759.534,-0.004764332,759.534,0.004515175,759.534,0.003814616,759.534,-0.005258353
757.983,-0.005825377,757.983,-0.005698828,757.983,-0.005297582,757.983,0.004836339,757.983,0.00398609,757.983,-0.005586043
756.432,-0.006248029,756.432,-0.00601577,756.432,-0.005676038,756.432,0.004343126,756.432,0.00321886,756.432,-0.005922014
755.02,-0.006313958,755.02,-0.006148147,755.02,-0.005631988,755.02,0.004491739,755.02,0.003373899,755.02,-0.005970324
753.467,-0.006423902,753.467,-0.006261603,753.467,-0.006125483,753.467,0.003439854,753.467,0.003246947,753.467,-0.006211846
752.054,-0.006789962,752.054,-0.006601489,752.054,-0.006792765,752.054,0.00376286,752.054,0.002512758,752.054,-0.006495772
750.499,-0.006993891,750.499,-0.006925518,750.499,-0.006941007,750.499,0.003272481,750.499,0.002325442,750.499,-0.007162028
748.943,-0.007632881,748.943,-0.00766213,748.943,-0.007164777,748.943,0.00298002,748.943,0.002189665,748.943,-0.007196706
747.528,-0.008357326,747.528,-0.008200778,747.528,-0.008279059,747.528,0.002316464,747.528,0.001193558,747.528,-0.0082434
745.971,-0.008964698,745.971,-0.008874722,745.971,-0.008069583,745.971,0.001773752,745.971,0.001188055,745.971,-0.008547424
744.554,-0.009063782,744.554,-0.008711155,744.554,-0.008549962,744.554,0.001409108,744.554,0.000746908,744.554,-0.008716331
742.995,-0.008770825,742.995,-0.008592093,742.995,-0.008114302,742.995,0.002078354,742.995,0.00135821,742.995,-0.008672689
741.435,-0.009503,741.435,-0.0094411,741.435,-0.009077168,741.435,0.001051543,741.435,0.000271137,741.435,-0.009552889
740.016,-0.009948201,740.016,-0.0100517,740.016,-0.009563423,740.016,0.000434999,740.016,-0.000584112,740.016,-0.00984866
738.454,-0.0105142,738.454,-0.0105252,738.454,-0.0100047,738.454,0.00040818,738.454,-0.000987358,738.454,-0.009951793
737.034,-0.0105316,737.034,-0.0105277,737.034,-0.0101603,737.034,0.000118315,737.034,-0.000854225,737.034,-0.0105979
735.47,-0.010566,735.47,-0.0102806,735.47,-0.0100288,735.47,0.000300174,735.47,-0.000914985,735.47,-0.0103698
734.048,-0.0103783,734.048,-0.0100439,734.048,-0.009727632,734.048,0.000468348,734.048,-0.000853501,734.048,-0.009925076
732.483,-0.0101707,732.483,-0.009845573,732.483,-0.009666877,732.483,0.000469696,732.483,-0.000149078,732.483,-0.00997527
731.06,-0.0105813,731.06,-0.0105719,731.06,-0.0103,731.06,-0.000112227,731.06,-0.000935649,731.06,-0.0104227
729.493,-0.0114291,729.493,-0.0111311,729.493,-0.0111211,729.493,-0.000752629,729.493,-0.001501016,729.493,-0.0115101
728.068,-0.0123447,728.068,-0.0118728,728.068,-0.0119283,728.068,-0.001512779,728.068,-0.002679509,728.068,-0.01220881
726.5,-0.0133848,726.5,-0.0134339,726.5,-0.0131779,726.5,-0.002758791,726.5,-0.003891296,726.5,-0.0133933
724.931,-0.0145699,724.931,-0.0144143,724.931,-0.0143739,724.931,-0.003893502,724.931,-0.004653147,724.931,-0.0144283
723.504,-0.0151496,723.504,-0.01505917,723.504,-0.0147981,723.504,-0.004450473,723.504,-0.00560342,723.504,-0.0151514
721.933,-0.0158266,721.933,-0.0158307,721.933,-0.0154762,721.933,-0.005175075,721.933,-0.006216898,721.933,-0.0156189
720.505,-0.0161958,720.505,-0.016162,720.505,-0.0157468,720.505,-0.005640727,720.505,-0.006437676,720.505,-0.0160546
718.932,-0.016214,718.932,-0.0161731,718.932,-0.01560431,718.932,-0.00565289,718.932,-0.006296354,718.932,-0.0159188
717.502,-0.0160732,717.502,-0.0160498,717.502,-0.01562958,717.502,-0.00525201,717.502,-0.006438849,717.502,-0.0161714
715.928,-0.0159995,715.928,-0.0159164,715.928,-0.0153241,715.928,-0.005252829,715.928,-0.006057534,715.928,-0.0157909
714.497,-0.0153392,714.497,-0.0153855,714.497,-0.0149324,714.497,-0.00472741,714.497,-0.005735463,714.497,-0.0154172
713.065,-0.0143596,713.065,-0.0146074,713.065,-0.0144276,713.065,-0.003995443,713.065,-0.00466923,713.065,-0.0146078
711.488,-0.0132063,711.488,-0.01325315,711.488,-0.0126776,711.488,-0.002825355,711.488,-0.003532593,711.488,-0.0131645
710.055,-0.0121634,710.055,-0.01181399,710.055,-0.0116425,710.055,-0.001107283,710.055,-0.002556517,710.055,-0.01168988
708.477,-0.0106099,708.477,-0.0105493,708.477,-0.0101572,708.477,0.000109408,708.477,-0.000888636,708.477,-0.0104666
707.042,-0.008680555,707.042,-0.008756162,707.042,-0.008162725,707.042,0.001920267,707.042,0.000880445,707.042,-0.008488839
705.463,-0.006372377,705.463,-0.006303141,705.463,-0.005995039,705.463,0.004373038,705.463,0.003240088,705.463,-0.006516989
704.026,-0.004677783,704.026,-0.004582765,704.026,-0.004232374,704.026,0.00596092,704.026,0.005201829,704.026,-0.004824087
702.445,-0.002548643,702.445,-0.002356003,702.445,-0.002017879,702.445,0.008775554,702.445,0.007211237,702.445,-0.002467623
701.007,-0.000350303,701.007,-0.000324075,701.007,0.00017202,701.007,0.0105013,701.007,0.009498509,701.007,-0.000570566
699.569,0.001303085,699.569,0.001057071,699.569,0.001638667,699.569,0.0117771,699.569,0.0108994,699.569,0.001222631
697.985,0.003263796,697.985,0.003228613,697.985,0.003373455,697.985,0.013754,697.985,0.0129299,697.985,0.003350785
696.545,0.005361692,696.545,0.005305847,696.545,0.005734024,696.545,0.0162053,696.545,0.0148149,696.545,0.004929325
694.961,0.006815416,694.961,0.00672397,694.961,0.007201946,694.961,0.0174474,694.961,0.0163673,694.961,0.006891653
693.519,0.008103696,693.519,0.008376986,693.519,0.008647542,693.519,0.0189811,693.519,0.0180775,693.519,0.008089297
691.933,0.009615973,691.933,0.009505652,691.933,0.009916063,691.933,0.0208203,691.933,0.0196352,691.933,0.009812444
690.49,0.010761,690.49,0.0113461,690.49,0.0109724,690.49,0.0217654,690.49,0.0204672,690.49,0.0109098
689.046,0.01210926,689.046,0.0121224,689.046,0.0121608,689.046,0.0228523,689.046,0.0216305,689.046,0.0119872
687.458,0.0126225,687.458,0.0130118,687.458,0.0133036,687.458,0.02403404,687.458,0.0227821,687.458,0.0128649
686.013,0.0146747,686.013,0.0141524,686.013,0.0146177,686.013,0.0250128,686.013,0.0241333,686.013,0.0139536
684.567,0.0149289,684.567,0.0142122,684.567,0.0146054,684.567,0.0252272,684.567,0.0247811,684.567,0.0146128
682.976,0.01521035,682.976,0.0151265,682.976,0.0152857,682.976,0.0259832,682.976,0.0250503,682.976,0.0149716
681.53,0.0160608,681.53,0.0156027,681.53,0.0160031,681.53,0.0268173,681.53,0.0257398,681.53,0.0156045
679.937,0.0162743,679.937,0.0160596,679.937,0.0165151,679.937,0.0266224,679.937,0.0258948,679.937,0.0165019
678.489,0.0164301,678.489,0.01643,678.489,0.01661549,678.489,0.0276151,678.489,0.0266923,678.489,0.0166114
677.04,0.0167109,677.04,0.0170024,677.04,0.0169842,677.04,0.0276309,677.04,0.0269033,677.04,0.0167145
675.445,0.0178566,675.445,0.0175889,675.445,0.0184243,675.445,0.0286234,675.445,0.027792,675.445,0.0177189
673.995,0.017094,673.995,0.0179832,673.995,0.0176262,673.995,0.02837058,673.995,0.0275883,673.995,0.0173151
672.544,0.0174902,672.544,0.0176583,672.544,0.0179011,672.544,0.02834828,672.544,0.0278413,672.544,0.0174904
670.947,0.01729271,670.947,0.0178956,670.947,0.0179859,670.947,0.0287383,670.947,0.02748139,670.947,0.0176258
669.495,0.0176976,669.495,0.0177286,669.495,0.0185163,669.495,0.0293574,669.495,0.0279156,669.495,0.0176728
668.042,0.0174668,668.042,0.0173938,668.042,0.0177563,668.042,0.0285136,668.042,0.0280476,668.042,0.0176111
666.443,0.0165461,666.443,0.0165481,666.443,0.016794,666.443,0.0270684,666.443,0.026578,666.443,0.0166719
664.988,0.0158558,664.988,0.0159657,664.988,0.0160653,664.988,0.0274483,664.988,0.0261741,664.988,0.0158809
663.533,0.0156625,663.533,0.015748,663.533,0.0160083,663.533,0.0267942,663.533,0.0256437,663.533,0.0156358
661.932,0.0153679,661.932,0.0153386,661.932,0.0156554,661.932,0.0265498,661.932,0.0254892,661.932,0.0154532
660.476,0.0150961,660.476,0.0154386,660.476,0.0155413,660.476,0.0264291,660.476,0.0253445,660.476,0.0150914
659.019,0.0152017,659.019,0.0153989,659.019,0.01540642,659.019,0.02592589,659.019,0.0254714,659.019,0.0149731
657.561,0.0151565,657.561,0.0152597,657.561,0.0153813,657.561,0.0261231,657.561,0.0253409,657.561,0.0151227
655.957,0.0148417,655.957,0.01496078,655.957,0.0153087,655.957,0.0258935,655.957,0.0252867,655.957,0.0150737
654.498,0.0149268,654.498,0.0150659,654.498,0.0153801,654.498,0.02586852,654.498,0.0249847,654.498,0.0149066
653.039,0.0149769,653.039,0.0150931,653.039,0.0152189,653.039,0.0259345,653.039,0.0253971,653.039,0.0150393
651.433,0.014667,651.433,0.0147743,651.433,0.0153109,651.433,0.0263417,651.433,0.024927,651.433,0.0151799
649.972,0.0147468,649.972,0.0148386,649.972,0.0151518,649.972,0.0263282,649.972,0.0251361,649.972,0.0149809
648.51,0.0148988,648.51,0.0150264,648.51,0.0152206,648.51,0.0257522,648.51,0.0249528,648.51,0.0150373
647.048,0.0145644,647.048,0.0149024,647.048,0.0153036,647.048,0.0258316,647.048,0.0251165,647.048,0.0150052
645.439,0.0153621,645.439,0.0151172,645.439,0.01570238,645.439,0.02629739,645.439,0.0255595,645.439,0.0153661
643.976,0.0148871,643.976,0.01477833,643.976,0.0151614,643.976,0.0260811,643.976,0.0250828,643.976,0.0148672
642.512,0.0147772,642.512,0.0148871,642.512,0.01506207,642.512,0.026118,642.512,0.0251365,642.512,0.0148594
641.047,0.0149667,641.047,0.0150998,641.047,0.01531135,641.047,0.025968,641.047,0.0250896,641.047,0.0147487
639.435,0.01473066,639.435,0.0149856,639.435,0.01518885,639.435,0.02615,639.435,0.0251052,639.435,0.0147131
637.969,0.0147437,637.969,0.0149287,637.969,0.0148803,637.969,0.0257711,637.969,0.0253305,637.969,0.0148508
636.503,0.0146624,636.503,0.0148072,636.503,0.0153885,636.503,0.026019,636.503,0.0251723,636.503,0.0146854
635.035,0.0150001,635.035,0.0147893,635.035,0.0148706,635.035,0.0261181,635.035,0.02527185,635.035,0.0147047
633.568,0.0150543,633.568,0.0148585,633.568,0.0152311,633.568,0.0262106,633.568,0.0253754,633.568,0.0147143
631.952,0.0149811,631.952,0.014528,631.952,0.014936,631.952,0.0258619,631.952,0.0253312,631.952,0.0147525
630.483,0.0147529,630.483,0.0148319,630.483,0.0150546,630.483,0.0262095,630.483,0.0253657,630.483,0.01487588
629.013,0.0150379,629.013,0.0150102,629.013,0.0152286,629.013,0.0262331,629.013,0.0252959,629.013,0.0149138
627.543,0.0148076,627.543,0.0151297,627.543,0.015225,627.543,0.026105,627.543,0.0253481,627.543,0.0150551
626.072,0.0148778,626.072,0.0153643,626.072,0.0150728,626.072,0.0262889,626.072,0.0254231,626.072,0.014878
624.454,0.01512827,624.454,0.0151285,624.454,0.0154721,624.454,0.0262222,624.454,0.0256397,624.454,0.0149248
622.981,0.0153168,622.981,0.0152607,622.981,0.01534133,622.981,0.0271693,622.981,0.0257015,622.981,0.0151623
621.509,0.0151877,621.509,0.0151745,621.509,0.0154207,621.509,0.0266229,621.509,0.0255174,621.509,0.0152801
620.035,0.0151333,620.035,0.0150256,620.035,0.0153939,620.035,0.0267047,620.035,0.025808,620.035,0.0149961
618.561,0.014862,618.561,0.01494232,618.561,0.0152501,618.561,0.0266204,618.561,0.0254428,618.561,0.0147987
616.939,0.0148514,616.939,0.0148931,616.939,0.0149004,616.939,0.0265057,616.939,0.02534,616.939,0.0149215
615.464,0.0147595,615.464,0.0147099,615.464,0.0151408,615.464,0.0263606,615.464,0.0256482,615.464,0.0147575
613.988,0.0146346,613.988,0.014748,613.988,0.01493,613.988,0.0262388,613.988,0.0253831,613.988,0.0146775
612.512,0.0144663,612.512,0.0145615,612.512,0.01491368,612.512,0.02637974,612.512,0.0253496,612.512,0.0145795
611.035,0.01447347,611.035,0.0144163,611.035,0.014966,611.035,0.0261001,611.035,0.0252151,611.035,0.0143306
609.557,0.0145266,609.557,0.0146587,609.557,0.0148242,609.557,0.0260634,609.557,0.0250101,609.557,0.0143741
607.931,0.0141547,607.931,0.0144785,607.931,0.0148384,607.931,0.0258339,607.931,0.0249891,607.931,0.0142241
606.453,0.0141443,606.453,0.014214,606.453,0.0144787,606.453,0.0259219,606.453,0.024994,606.453,0.01414307
604.973,0.0142284,604.973,0.0143168,604.973,0.0147011,604.973,0.0257156,604.973,0.02485339,604.973,0.01434334
603.493,0.0141062,603.493,0.0143943,603.493,0.0144746,603.493,0.0256352,603.493,0.02475908,603.493,0.014103
602.013,0.0139931,602.013,0.0142539,602.013,0.0145776,602.013,0.02578146,602.013,0.0248605,602.013,0.0139039
600.531,0.01417198,600.531,0.0142005,600.531,0.0143477,600.531,0.0256759,600.531,0.02497958,600.531,0.0140009
599.05,0.0139476,599.05,0.0136678,599.05,0.0141989,599.05,0.0256896,599.05,0.0245044,599.05,0.0137145
597.568,0.0136689,597.568,0.0138403,597.568,0.014272,597.568,0.0253972,597.568,0.0244897,597.568,0.0139963
595.936,0.013655,595.936,0.0137377,595.936,0.0142407,595.936,0.02518845,595.936,0.0244423,595.936,0.0137826
594.453,0.0136167,594.453,0.0138158,594.453,0.0141265,594.453,0.025194,594.453,0.0244711,594.453,0.0137092
592.969,0.01339868,592.969,0.0135507,592.969,0.0138254,592.969,0.0251282,592.969,0.0243933,592.969,0.0135776
591.484,0.0133364,591.484,0.01356199,591.484,0.0137865,591.484,0.0251457,591.484,0.0243213,591.484,0.0132736
589.999,0.0132404,589.999,0.0131883,589.999,0.013726,589.999,0.0249642,589.999,0.0241044,589.999,0.0133071
588.513,0.0129173,588.513,0.0129449,588.513,0.0137914,588.513,0.02505452,588.513,0.0240405,588.513,0.0131664
587.027,0.0130457,587.027,0.0131044,587.027,0.0132941,587.027,0.0249771,587.027,0.0238663,587.027,0.013092
585.54,0.0127116,585.54,0.0128147,585.54,0.0130458,585.54,0.0246697,585.54,0.0235706,585.54,0.012819
584.052,0.01244022,584.052,0.0126353,584.052,0.0131392,584.052,0.0245759,584.052,0.0233576,584.052,0.0127265
582.564,0.0123694,582.564,0.0121931,582.564,0.0127134,582.564,0.0245058,582.564,0.02331608,582.564,0.0126452
580.927,0.0120328,580.927,0.0121917,580.927,0.01242786,580.927,0.024136,580.927,0.0231671,580.927,0.0121098
579.438,0.0119133,579.438,0.01184734,579.438,0.01239635,579.438,0.023916,579.438,0.022852,579.438,0.0118846
577.948,0.0115479,577.948,0.0117711,577.948,0.0119866,577.948,0.023777,577.948,0.0226651,577.948,0.0117066
576.458,0.0113948,576.458,0.0115277,576.458,0.0116943,576.458,0.0233739,576.458,0.0227587,576.458,0.0113866
574.967,0.0110513,574.967,0.0111218,574.967,0.0115468,574.967,0.0230192,574.967,0.0223199,574.967,0.0111233
573.475,0.0106594,573.475,0.01094764,573.475,0.0111366,573.475,0.022825,573.475,0.0219143,573.475,0.01088441
571.983,0.0103432,571.983,0.0105401,571.983,0.01100379,571.983,0.0226264,571.983,0.0214898,571.983,0.0106457
570.491,0.0101587,570.491,0.0101512,570.491,0.0104586,570.491,0.0223839,570.491,0.021459,570.491,0.0102396
568.998,0.009882271,568.998,0.009873427,568.998,0.0101962,568.998,0.02182796,568.998,0.0209878,568.998,0.0102512
567.504,0.009539467,567.504,0.009546268,567.504,0.009886482,567.504,0.0216208,567.504,0.0210249,567.504,0.009681559
566.01,0.009126452,566.01,0.009169756,566.01,0.009671395,566.01,0.021274,566.01,0.0203111,566.01,0.009222371
564.515,0.008569993,564.515,0.008799116,564.515,0.009239003,564.515,0.02111146,564.515,0.0198581,564.515,0.009023893
563.02,0.008205985,563.02,0.008464187,563.02,0.008664046,563.02,0.02043049,563.02,0.0193654,563.02,0.008663677
561.524,0.007806226,561.524,0.007992256,561.524,0.008309775,561.524,0.0203072,561.524,0.019296,561.524,0.008202635
560.028,0.007397355,560.028,0.007378898,560.028,0.00788232,560.028,0.0196231,560.028,0.0185254,560.028,0.0078441
558.531,0.007146075,558.531,0.006968535,558.531,0.007585002,558.531,0.01931316,558.531,0.0183364,558.531,0.007332665
557.033,0.006614487,557.033,0.006993946,557.033,0.00708808,557.033,0.0189527,557.033,0.018114,557.033,0.006902699
555.535,0.006240926,555.535,0.00621548,555.535,0.006507475,555.535,0.01858037,555.535,0.0175512,555.535,0.006403457
554.037,0.005534014,554.037,0.005754983,554.037,0.006105075,554.037,0.0182194,554.037,0.0171801,554.037,0.005841554
552.538,0.005266752,552.538,0.005551239,552.538,0.005774368,552.538,0.0175298,552.538,0.0169592,552.538,0.00555027
551.038,0.004905867,551.038,0.004866756,551.038,0.005267616,551.038,0.0171204,551.038,0.0163915,551.038,0.005113656
549.538,0.004312039,549.538,0.004459021,549.538,0.004790559,549.538,0.0169156,549.538,0.0159709,549.538,0.004533485
548.038,0.003862042,548.038,0.003972897,548.038,0.00434242,548.038,0.0163898,548.038,0.0153618,548.038,0.003996043
546.536,0.003438471,546.536,0.003654407,546.536,0.003920835,546.536,0.0161273,546.536,0.0152408,546.536,0.003684873
545.035,0.00332736,545.035,0.003358898,545.035,0.003763173,545.035,0.0160746,545.035,0.01498326,545.035,0.003367664
543.533,0.002982913,543.533,0.003115549,543.533,0.003562529,543.533,0.0159407,543.533,0.01468961,543.533,0.003287791
542.03,0.002794691,542.03,0.002938033,542.03,0.003493241,542.03,0.0152561,542.03,0.0143527,542.03,0.003092736
540.527,0.00289188,540.527,0.002979525,540.527,0.0035012,540.527,0.0154543,540.527,0.0144395,540.527,0.003224545
539.023,0.002870278,539.023,0.003069821,539.023,0.003482777,539.023,0.0157249,539.023,0.0146639,539.023,0.003121389
537.518,0.003189262,537.518,0.00334009,537.518,0.00366639,537.518,0.0158996,537.518,0.0149949,537.518,0.003488857
536.014,0.0035363,536.014,0.003762051,536.014,0.004222295,536.014,0.0163243,536.014,0.01522413,536.014,0.003833706
534.508,0.004080697,534.508,0.004207422,534.508,0.004579002,534.508,0.0169371,534.508,0.0160176,534.508,0.004328667
533.003,0.004679914,533.003,0.004877306,533.003,0.005255328,533.003,0.0173952,533.003,0.0163594,533.003,0.004981298
531.496,0.005497913,531.496,0.005714247,531.496,0.00619001,531.496,0.0184067,531.496,0.0175439,531.496,0.005959136
529.989,0.006580425,529.989,0.006784073,529.989,0.007414259,529.989,0.0196243,529.989,0.0189278,529.989,0.007190761
528.482,0.007757708,528.482,0.007861997,528.482,0.008519066,528.482,0.0205876,528.482,0.0194172,528.482,0.008215956
526.974,0.008620898,526.974,0.008846006,526.974,0.009387768,526.974,0.0213784,526.974,0.0209657,526.974,0.009035813
525.466,0.0100451,525.466,0.0102064,525.466,0.0108113,525.466,0.0228105,525.466,0.0217557,525.466,0.0106079
523.957,0.0113356,523.957,0.0114979,523.957,0.012191,523.957,0.0244286,523.957,0.0235253,523.957,0.0118753
522.447,0.0128183,522.447,0.0128502,522.447,0.0136171,522.447,0.0256639,522.447,0.0246054,522.447,0.0132492
520.937,0.0142423,520.937,0.0142699,520.937,0.014906,520.937,0.0269296,520.937,0.0264031,520.937,0.0148658
519.427,0.0156131,519.427,0.0155125,519.427,0.0162429,519.427,0.0286659,519.427,0.0275866,519.427,0.01622208
518.067,0.0169592,518.067,0.0169283,518.067,0.0175937,518.067,0.0296092,518.067,0.0294116,518.067,0.0176249
516.556,0.0180294,516.556,0.018389,516.556,0.0191435,516.556,0.0308837,516.556,0.0302832,516.556,0.0190066
515.044,0.0192498,515.044,0.0191858,515.044,0.0200989,515.044,0.0323229,515.044,0.0314981,515.044,0.0201058
513.532,0.0201609,513.532,0.0202542,513.532,0.0214519,513.532,0.0334355,513.532,0.0326698,513.532,0.0215033
512.019,0.0212611,512.019,0.0215971,512.019,0.022487,512.019,0.0344697,512.019,0.0345175,512.019,0.0228449
510.505,0.0222312,510.505,0.0226679,510.505,0.0234378,510.505,0.035645,510.505,0.0349487,510.505,0.0237897
508.992,0.0229143,508.992,0.0232077,508.992,0.0240797,508.992,0.0361965,508.992,0.0362256,508.992,0.0248651
507.477,0.0237815,507.477,0.0240867,507.477,0.02488379,507.477,0.0372517,507.477,0.0368378,507.477,0.0259743
505.962,0.0244014,505.962,0.0249402,505.962,0.0255238,505.962,0.0383214,505.962,0.0382736,505.962,0.0269925
504.447,0.0251238,504.447,0.0254927,504.447,0.0262017,504.447,0.0389089,504.447,0.038684,504.447,0.0279647
502.931,0.0252991,502.931,0.0258443,502.931,0.0268128,502.931,0.0395092,502.931,0.0392286,502.931,0.0288621
501.567,0.0255189,501.567,0.02627385,501.567,0.0269287,501.567,0.03975679,501.567,0.0402507,501.567,0.0297853
500.05,0.0264252,500.05,0.0263768,500.05,0.0276175,500.05,0.0403436,500.05,0.0406772,500.05,0.0308923
498.533,0.0261161,498.533,0.026757,498.533,0.0277913,498.533,0.0406928,498.533,0.0411663,498.533,0.0319424
497.015,0.0265314,497.015,0.0268475,497.015,0.02823901,497.015,0.0410149,497.015,0.0420266,497.015,0.0333616
495.497,0.026478,495.497,0.027028,495.497,0.0284582,495.497,0.0414037,495.497,0.042804,495.497,0.0344122
493.978,0.0260947,493.978,0.0269478,493.978,0.0285716,493.978,0.04227009,493.978,0.0438217,493.978,0.0362908
492.459,0.0261616,492.459,0.0270034,492.459,0.029027,492.459,0.0422801,492.459,0.04481392,492.459,0.0380309
490.94,0.0264269,490.94,0.0274334,490.94,0.0294731,490.94,0.0430499,490.94,0.0463216,490.94,0.0404693
489.572,0.0261151,489.572,0.0273228,489.572,0.0294112,489.572,0.04335827,489.572,0.0471605,489.572,0.0420893
488.051,0.0261138,488.051,0.0274679,488.051,0.0296547,488.051,0.0440061,488.051,0.0480443,488.051,0.0444906
486.53,0.02590193,486.53,0.0278991,486.53,0.0304737,486.53,0.0446732,486.53,0.0500906,486.53,0.0481621
485.009,0.0257489,485.009,0.0278778,485.009,0.0311545,485.009,0.04552649,485.009,0.0523801,485.009,0.0515166
483.487,0.0255172,483.487,0.0279097,483.487,0.0313502,483.487,0.04595612,483.487,0.0534646,483.487,0.0545383
481.965,0.0257988,481.965,0.0284502,481.965,0.032209,481.965,0.0469949,481.965,0.0560546,481.965,0.0595601
480.442,0.0256933,480.442,0.0289138,480.442,0.03312593,480.442,0.0480744,480.442,0.05895903,480.442,0.0644514
479.071,0.0261174,479.071,0.029578,479.071,0.0340583,479.071,0.0498286,479.071,0.0618359,479.071,0.069285
477.547,0.0264339,477.547,0.0303907,477.547,0.0351377,477.547,0.0513123,477.547,0.0648994,477.547,0.0752618
476.023,0.0270885,476.023,0.03146141,476.023,0.036736,476.023,0.0531964,476.023,0.0679196,476.023,0.0807041
474.499,0.0279325,474.499,0.0330695,474.499,0.0391329,474.499,0.05588492,474.499,0.0731042,474.499,0.0894465
472.973,0.0295371,472.973,0.0347191,472.973,0.041438,472.973,0.0587109,472.973,0.0778701,472.973,0.0983748
471.448,0.0306977,471.448,0.0365614,471.448,0.044097,471.448,0.0622609,471.448,0.0842292,471.448,0.107461
470.075,0.0324083,470.075,0.0384951,470.075,0.0465823,470.075,0.065262,470.075,0.0887338,470.075,0.115754
468.548,0.0341693,468.548,0.0412714,468.548,0.0496892,468.548,0.0691182,468.548,0.0952498,468.548,0.126623
467.021,0.0363692,467.021,0.0437451,467.021,0.0529958,467.021,0.0738069,467.021,0.102645,467.021,0.138996
465.494,0.0382624,465.494,0.0462132,465.494,0.05621478,465.494,0.0777022,465.494,0.10857,465.494,0.149832
463.966,0.0401906,463.966,0.0486456,463.966,0.05928079,463.966,0.0817112,463.966,0.115445,463.966,0.16229
462.438,0.0423452,462.438,0.0512886,462.438,0.063002,462.438,0.0864919,462.438,0.122425,462.438,0.175277
461.062,0.0434568,461.062,0.0532782,461.062,0.0658356,461.062,0.0903491,461.062,0.129793,461.062,0.187392
459.533,0.0455549,459.533,0.0561428,459.533,0.0690549,459.533,0.0944544,459.533,0.137195,459.533,0.201421
458.004,0.0473321,458.004,0.0582926,458.004,0.0722198,458.004,0.0993466,458.004,0.144669,458.004,0.216065
456.474,0.0483948,456.474,0.0597863,456.474,0.0747305,456.474,0.102858,456.474,0.152042,456.474,0.229118
454.944,0.0499587,454.944,0.0623187,454.944,0.0782348,454.944,0.108375,454.944,0.161186,454.944,0.246097
453.566,0.051076,453.566,0.063988,453.566,0.0811234,453.566,0.112307,453.566,0.169141,453.566,0.262123
452.035,0.0522425,452.035,0.06594418,452.035,0.0837037,452.035,0.116077,452.035,0.177119,452.035,0.278007
450.503,0.0534452,450.503,0.0676278,450.503,0.0866169,450.503,0.121262,450.503,0.185837,450.503,0.29568
448.971,0.0544571,448.971,0.0693259,448.971,0.0894995,448.971,0.125731,448.971,0.194554,448.971,0.31377
447.439,0.0556178,447.439,0.0711698,447.439,0.0924081,447.439,0.130804,447.439,0.205086,447.439,0.334898
446.059,0.0563471,446.059,0.0728373,446.059,0.0948627,446.059,0.134949,446.059,0.214067,446.059,0.352405
444.526,0.0572775,444.526,0.0747913,444.526,0.0978619,444.526,0.140786,444.526,0.224413,444.526,0.3753874
442.992,0.058038,442.992,0.0764167,442.992,0.100722,442.992,0.145953,442.992,0.235647,442.992,0.397736
441.458,0.05894693,441.458,0.0784344,441.458,0.104113,441.458,0.152304,441.458,0.248353,441.458,0.425101
439.923,0.0604313,439.923,0.0805538,439.923,0.107665,439.923,0.158645,439.923,0.261862,439.923,0.454314
438.542,0.0613452,438.542,0.08222425,438.542,0.110914,438.542,0.165381,438.542,0.275298,438.542,0.481935
437.007,0.0618707,437.007,0.08382085,437.007,0.114376,437.007,0.171879,437.007,0.289497,437.007,0.512293
435.471,0.0626681,435.471,0.0858139,435.471,0.118482,435.471,0.17977,435.471,0.305085,435.471,0.547257
433.935,0.06407246,433.935,0.088615,433.935,0.124167,433.935,0.189931,433.935,0.32731,433.935,0.593767
432.552,0.0653328,432.552,0.0908773,432.552,0.128689,432.552,0.198857,432.552,0.346545,432.552,0.631719
431.015,0.0667535,431.015,0.09413939,431.015,0.133842,431.015,0.210754,431.015,0.368374,431.015,0.680442
429.477,0.0681052,429.477,0.0972952,429.477,0.140063,429.477,0.221209,429.477,0.393174,429.477,0.732733
427.939,0.0702576,427.939,0.102139,427.939,0.148674,427.939,0.237771,427.939,0.426221,427.939,0.798855
426.555,0.0723347,426.555,0.105848,426.555,0.156002,426.555,0.251246,426.555,0.455575,426.555,0.863307
425.016,0.07495641,425.016,0.111007,425.016,0.165177,425.016,0.268573,425.016,0.490233,425.016,0.939376
423.477,0.0768526,423.477,0.116069,423.477,0.174887,423.477,0.286212,423.477,0.528887,423.477,1.01536
421.938,0.0800128,421.938,0.121793,421.938,0.185495,421.938,0.308555,421.938,0.569215,421.938,1.10273
420.552,0.0830182,420.552,0.129051,420.552,0.198259,420.552,0.327195,420.552,0.615802,420.552,1.19806
419.012,0.087046,419.012,0.137321,419.012,0.212368,419.012,0.356021,419.012,0.674921,419.012,1.32116
417.471,0.09103252,417.471,0.145533,417.471,0.227361,417.471,0.383834,417.471,0.728311,417.471,1.43032
415.93,0.0950673,415.93,0.153378,415.93,0.242673,415.93,0.411943,415.93,0.786987,415.93,1.55109
414.543,0.0997087,414.543,0.163356,414.543,0.260026,414.543,0.44372,414.543,0.852281,414.543,1.69375
413.001,0.104766,413.001,0.174953,413.001,0.281022,413.001,0.483171,413.001,0.935389,413.001,1.85865
411.459,0.110349,411.459,0.184984,411.459,0.301891,411.459,0.518544,411.459,1.01051,411.459,2.00449
410.071,0.114726,410.071,0.194973,410.071,0.3203,410.071,0.550199,410.071,1.0772,410.071,2.15282
408.528,0.120437,408.528,0.206544,408.528,0.340444,408.528,0.591653,408.528,1.15313,408.528,2.30853
406.985,0.126259,406.985,0.219156,406.985,0.362942,406.985,0.631132,406.985,1.24084,406.985,2.47321
405.441,0.132169,405.441,0.231576,405.441,0.385687,405.441,0.674639,405.441,1.33098,405.441,2.65234
404.051,0.137179,404.051,0.241679,404.051,0.404623,404.051,0.708754,404.051,1.40067,404.051,2.81253
402.507,0.141462,402.507,0.252187,402.507,0.423901,402.507,0.743023,402.507,1.47441,402.507,2.93395
400.962,0.147839,400.962,0.264743,400.962,0.44581,400.962,0.781618,400.962,1.55973,400.962,3.17547
399.571,0.152823,399.571,0.275582,399.571,0.465711,399.571,0.81844,399.571,1.63393,399.571,3.32545
398.026,0.159258,398.026,0.2871,398.026,0.4892492,398.026,0.859432,398.026,1.71217,398.026,3.39183
396.48,0.164008,396.48,0.298241,396.48,0.50788,396.48,0.89468,396.48,1.79135,396.48,3.68477
394.933,0.168742,394.933,0.30834,394.933,0.525999,394.933,0.932167,394.933,1.86017,394.933,3.62544
393.541,0.174019,393.541,0.318964,393.541,0.545462,393.541,0.963901,393.541,1.92817,393.541,3.75944
391.994,0.179575,391.994,0.329645,391.994,0.56518,391.994,0.99896,391.994,2.0014,391.994,3.77999
390.447,0.184181,390.447,0.339145,390.447,0.582954,390.447,1.03289,390.447,2.06766,390.447,3.97668
389.054,0.188314,389.054,0.347898,389.054,0.597954,389.054,1.05906,389.054,2.12459,389.054,3.95885
387.506,0.191384,387.506,0.354635,387.506,0.610208,387.506,1.08123,387.506,2.16812,387.506,3.96418
385.957,0.195563,385.957,0.36313,385.957,0.623657,385.957,1.10754,385.957,2.21329,385.957,4.31818
384.563,0.197488,384.563,0.367542,384.563,0.634402,384.563,1.12395,384.563,2.26064,384.563,4.42421
383.014,0.201279,383.014,0.373244,383.014,0.642777,383.014,1.1405,383.014,2.27927,383.014,3.72231
381.464,0.203505,381.464,0.377297,381.464,0.648945,381.464,1.15283,381.464,2.31766,381.464,4.99385
380.069,0.205329,380.069,0.379749,380.069,0.65446,380.069,1.16114,380.069,2.32453,380.069,4.05367
378.519,0.206781,378.519,0.382996,378.519,0.659592,378.519,1.16984,378.519,2.33866,378.519,3.75808
376.968,0.208737,376.968,0.385256,376.968,0.662728,376.968,1.17531,376.968,2.35466,376.968,4.76899
375.573,0.209827,375.573,0.385676,375.573,0.665185,375.573,1.17821,375.573,2.36869,375.573,10
374.021,0.210921,374.021,0.387013,374.021,0.664884,374.021,1.17987,374.021,2.37037,374.021,10
372.47,0.210705,372.47,0.386634,372.47,0.664305,372.47,1.17739,372.47,2.36963,372.47,10
371.073,0.210731,371.073,0.385853,371.073,0.661941,371.073,1.17291,371.073,2.33705,371.073,3.87634
369.52,0.210301,369.52,0.383914,369.52,0.657686,369.52,1.16615,369.52,2.35623,369.52,10
367.968,0.209304,367.968,0.381106,367.968,0.65104,367.968,1.15594,367.968,2.32848,367.968,10
366.57,0.207976,366.57,0.37744,366.57,0.644613,366.57,1.14395,366.57,2.30111,366.57,10
365.016,0.206032,365.016,0.372844,365.016,0.635639,365.016,1.12672,365.016,2.2631,365.016,10
363.463,0.202932,363.463,0.366004,363.463,0.62337,363.463,1.10439,363.463,2.21264,363.463,4.01682
362.064,0.200594,362.064,0.361136,362.064,0.614378,362.064,1.08913,362.064,2.17638,362.064,10
360.51,0.198372,360.51,0.355628,360.51,0.603563,360.51,1.07022,360.51,2.14538,360.51,10
358.955,0.194912,358.955,0.348277,358.955,0.590381,358.955,1.04773,358.955,2.08932,358.955,10
357.555,0.192293,357.555,0.342976,357.555,0.580537,357.555,1.02907,357.555,2.05473,357.555,10
356,0.188293,356,0.334349,356,0.564829,356,1.00172,356,1.99266,356,10
354.444,0.184566,354.444,0.326544,354.444,0.550309,354.444,0.976842,354.444,1.93656,354.444,10
353.044,0.181152,353.044,0.319588,353.044,0.537722,353.044,0.954314,353.044,1.89574,353.044,10
351.487,0.176908,351.487,0.310835,351.487,0.522587,351.487,0.927363,351.487,1.83657,351.487,3.68127
349.93,0.17203,349.93,0.301118,349.93,0.50526,349.93,0.897227,349.93,1.77704,349.93,10
348.529,0.16756,348.529,0.292295,348.529,0.48954,348.529,0.868825,348.529,1.7139,348.529,3.73818
346.972,0.163797,346.972,0.283995,346.972,0.474867,346.972,0.84332,346.972,1.66426,346.972,3.87202
345.57,0.159676,345.57,0.276222,345.57,0.460316,345.57,0.818008,345.57,1.60993,345.57,3.38566
344.012,0.155699,344.012,0.268467,344.012,0.446114,344.012,0.793324,344.012,1.55844,344.012,3.30004
342.453,0.151253,342.453,0.259417,342.453,0.430446,342.453,0.76566,342.453,1.5007,342.453,3.18637
341.05,0.147665,341.05,0.251617,341.05,0.416251,341.05,0.74007,341.05,1.44799,341.05,3.05231
339.491,0.143424,339.491,0.243734,339.491,0.402257,339.491,0.716876,339.491,1.39994,339.491,2.84684
337.932,0.14021,337.932,0.236759,337.932,0.390359,337.932,0.695518,337.932,1.35459,337.932,2.77621
336.529,0.136781,336.529,0.230643,336.529,0.379353,336.529,0.675409,336.529,1.31432,336.529,2.66658
334.969,0.13301,334.969,0.223225,334.969,0.366195,334.969,0.652658,334.969,1.26785,334.969,2.56786
333.564,0.130324,333.564,0.217534,333.564,0.356124,333.564,0.634107,333.564,1.23001,333.564,2.46988
332.004,0.127571,332.004,0.21245,332.004,0.346677,332.004,0.617748,332.004,1.19605,332.004,2.40158
330.443,0.125081,330.443,0.207516,330.443,0.338276,330.443,0.603395,330.443,1.16586,330.443,2.36569
329.038,0.123329,329.038,0.203871,329.038,0.332102,329.038,0.592834,329.038,1.14511,329.038,2.30294
327.476,0.121338,327.476,0.200556,327.476,0.325531,327.476,0.581342,327.476,1.12027,327.476,2.25569
326.071,0.119929,326.071,0.197873,326.071,0.320961,326.071,0.573364,326.071,1.10463,326.071,2.21072
324.509,0.119043,324.509,0.195944,324.509,0.317709,324.509,0.566501,324.509,1.09152,324.509,2.19467
322.946,0.118715,322.946,0.195078,322.946,0.315768,322.946,0.563347,322.946,1.08216,322.946,2.17164
321.54,0.118443,321.54,0.194414,321.54,0.31427,321.54,0.560722,321.54,1.07791,321.54,2.16888
319.977,0.118356,319.977,0.193627,319.977,0.3129,319.977,0.558108,319.977,1.07282,319.977,2.14789
318.57,0.118337,318.57,0.193456,318.57,0.312438,318.57,0.557169,318.57,1.07025,318.57,2.15201
317.007,0.118312,317.007,0.19341,317.007,0.311802,317.007,0.555959,317.007,1.06834,317.007,2.13145
315.443,0.118164,315.443,0.19281,315.443,0.310453,315.443,0.554105,315.443,1.06356,315.443,2.13763
314.035,0.118417,314.035,0.192565,314.035,0.3099401,314.035,0.552725,314.035,1.06032,314.035,2.123
312.471,0.117857,312.471,0.191474,312.471,0.308109,312.471,0.549105,312.471,1.05294,312.471,2.09928
311.062,0.117531,311.062,0.190101,311.062,0.305369,311.062,0.543992,311.062,1.04266,311.062,2.07916
309.497,0.116703,309.497,0.188285,309.497,0.301659,309.497,0.537646,309.497,1.02888,309.497,2.05285
307.932,0.116424,307.932,0.18668,307.932,0.298178,307.932,0.531257,307.932,1.01508,307.932,2.01763
306.523,0.115584,306.523,0.184431,306.523,0.293817,306.523,0.52367,306.523,0.998069,306.523,1.98087
304.957,0.113745,304.957,0.180512,304.957,0.28637,304.957,0.510667,304.957,0.969428,304.957,1.92162
303.548,0.111647,303.548,0.175861,303.548,0.278462,303.548,0.497268,303.548,0.942817,303.548,1.86592
301.981,0.109862,301.981,0.171741,301.981,0.270781,301.981,0.483874,301.981,0.915211,301.981,1.80684
300.571,0.107708,300.571,0.167149,300.571,0.262119,300.571,0.469374,300.571,0.884644,300.571,1.74035
299.004,0.105118,299.004,0.161765,299.004,0.252616,299.004,0.453524,299.004,0.850875,299.004,1.66794
297.437,0.103302,297.437,0.157041,297.437,0.242949,297.437,0.437212,297.437,0.815478,297.437,1.59284
296.026,0.100341,296.026,0.150756,296.026,0.232032,296.026,0.419494,296.026,0.777098,296.026,1.50969
294.458,0.098188,294.458,0.145877,294.458,0.222561,294.458,0.403695,294.458,0.743372,294.458,1.43297
293.047,0.0961707,293.047,0.140982,293.047,0.213169,293.047,0.389148,293.047,0.710566,293.047,1.36012
291.479,0.0939497,291.479,0.13622,291.479,0.204035,291.479,0.374535,291.479,0.677981,291.479,1.28774
290.067,0.0924731,290.067,0.131998,290.067,0.195932,290.067,0.361198,290.067,0.647864,290.067,1.22085
288.498,0.0897598,288.498,0.126121,288.498,0.18514,288.498,0.344757,288.498,0.61068,288.498,1.13412
286.929,0.0878512,286.929,0.122102,286.929,0.177215,286.929,0.331233,286.929,0.582435,286.929,1.07157
285.517,0.0864104,285.517,0.11873,285.517,0.170562,285.517,0.320007,285.517,0.557779,285.517,1.01729
283.947,0.0848934,283.947,0.115128,283.947,0.163863,283.947,0.309993,283.947,0.534706,283.947,0.967235
282.534,0.0835211,282.534,0.112417,282.534,0.159233,282.534,0.300748,282.534,0.517038,282.534,0.928772
280.964,0.0828964,280.964,0.110803,280.964,0.155662,280.964,0.294814,280.964,0.503764,280.964,0.898547
279.551,0.0829424,279.551,0.110683,279.551,0.155489,279.551,0.295035,279.551,0.502358,279.551,0.89266
277.98,0.083626,277.98,0.112214,277.98,0.158027,277.98,0.298504,277.98,0.509755,277.98,0.90713
276.566,0.0846746,276.566,0.114582,276.566,0.16197,276.566,0.306155,276.566,0.524268,276.566,0.935573
274.995,0.08662454,274.995,0.118301,274.995,0.168561,274.995,0.320418,274.995,0.55113,274.995,0.986072
273.423,0.0891096,273.423,0.123751,273.423,0.179549,273.423,0.339294,273.423,0.591978,273.423,1.06815
272.009,0.0926835,272.009,0.129959,272.009,0.190779,272.009,0.360341,272.009,0.636411,272.009,1.15914
270.437,0.0997458,270.437,0.145797,270.437,0.219061,270.437,0.410892,270.437,0.742019,270.437,1.35916
269.022,0.110672,269.022,0.168687,269.022,0.259944,269.022,0.484951,269.022,0.88954,269.022,1.66038
267.449,0.129142,267.449,0.206684,267.449,0.328541,267.449,0.607235,267.449,1.13991,267.449,2.15626
266.034,0.155591,266.034,0.258825,266.034,0.420984,266.034,0.772471,266.034,1.48048,266.034,2.76581
264.461,0.188016,264.461,0.325537,264.461,0.540677,264.461,0.987839,264.461,1.90446,264.461,3.52366
263.045,0.207617,263.045,0.36681,263.045,0.618143,263.045,1.12773,263.045,2.20724,263.045,3.71626
261.472,0.224189,261.472,0.401284,261.472,0.681931,261.472,1.24325,261.472,2.45841,261.472,10
260.055,0.230692,260.055,0.41483,260.055,0.704251,260.055,1.28446,260.055,2.54133,260.055,10
258.481,0.235116,258.481,0.424034,258.481,0.721094,258.481,1.31585,258.481,2.58984,258.481,4.49902
257.065,0.23679,257.065,0.426852,257.065,0.725901,257.065,1.32455,257.065,2.61228,257.065,4.43822
255.49,0.236378,255.49,0.425652,255.49,0.723375,255.49,1.32053,255.49,2.59893,255.49,10
254.073,0.233487,254.073,0.418884,254.073,0.710826,254.073,1.30079,254.073,2.56858,254.073,10
252.498,0.229075,252.498,0.408858,252.498,0.691933,252.498,1.26687,252.498,2.50619,252.498,10
250.923,0.220768,250.923,0.389056,250.923,0.654376,250.923,1.20068,250.923,2.36599,250.923,10
249.508,0.213429,249.508,0.370804,249.508,0.618526,249.508,1.13962,249.508,2.25487,249.508,10
247.942,0.206924,247.942,0.354654,247.942,0.586944,247.942,1.08165,247.942,2.13142,247.942,10
246.533,0.203319,246.533,0.342712,246.533,0.561136,246.533,1.03687,246.533,2.03639,246.533,10
244.966,0.199579,244.966,0.32882,244.966,0.53329,244.966,0.985864,244.966,1.93639,244.966,10
243.556,0.19716,243.556,0.31762,243.556,0.507814,243.556,0.939574,243.556,1.8419,243.556,3.94494
241.989,0.195724,241.989,0.307607,241.989,0.483609,241.989,0.895705,241.989,1.75082,241.989,3.49737
240.578,0.196764,240.578,0.301273,240.578,0.46502,240.578,0.861549,240.578,1.67853,240.578,3.30768
239.011,0.198584,239.011,0.294165,239.011,0.444335,239.011,0.824487,239.011,1.60563,239.011,3.25559
237.443,0.201916,237.443,0.291162,237.443,0.43095,237.443,0.799959,237.443,1.5522,237.443,3.10715
236.032,0.206325,236.032,0.289696,236.032,0.420276,236.032,0.781133,236.032,1.50975,236.032,3.01704
234.464,0.213411,234.464,0.290993,234.464,0.412467,234.464,0.766048,234.464,1.48248,234.464,2.90678
233.052,0.221063,233.052,0.295199,233.052,0.411153,233.052,0.764687,233.052,1.47204,233.052,2.91159
231.484,0.2287862,231.484,0.301101,231.484,0.413227,231.484,0.766369,231.484,1.47777,231.484,2.92978
230.072,0.236816,230.072,0.308121,230.072,0.419324,230.072,0.777243,230.072,1.49545,230.072,2.9895
228.503,0.247585,228.503,0.320945,228.503,0.433408,228.503,0.798298,228.503,1.5368,228.503,3.04645
226.934,0.261821,226.934,0.339703,226.934,0.457655,226.934,0.843801,226.934,1.62431,226.934,3.21227
225.521,0.274935,225.521,0.358602,225.521,0.487308,225.521,0.897555,225.521,1.72235,225.521,3.50425
223.952,0.289477,223.952,0.384341,223.952,0.531627,223.952,0.968337,223.952,1.86841,223.952,3.61423
222.539,0.30413,222.539,0.40837,222.539,0.571993,222.539,1.05416,222.539,2.01249,222.539,3.87043
220.969,0.322337,220.969,0.443641,220.969,0.630051,220.969,1.15432,220.969,2.21714,220.969,4.08365
219.555,0.339067,219.555,0.475676,219.555,0.68649,219.555,1.2548,219.555,2.41655,219.555,3.94133
217.985,0.354276,217.985,0.503857,217.985,0.738047,217.985,1.35071,217.985,2.5881,217.985,4.2468
216.572,0.362737,216.572,0.522452,216.572,0.771281,216.572,1.4221,216.572,2.7055,216.572,3.90822
215.001,0.371104,215.001,0.537498,215.001,0.795785,215.001,1.47148,215.001,2.81787,215.001,4.2788
213.43,0.376662,213.43,0.547953,213.43,0.813453,213.43,1.50596,213.43,2.84993,213.43,4.1999
212.016,0.383617,212.016,0.55849,212.016,0.826978,212.016,1.53534,212.016,2.87896,212.016,3.8455
210.444,0.396514,210.444,0.574821,210.444,0.849849,210.444,1.5783,210.444,3.02138,210.444,10
209.03,0.412732,209.03,0.596832,209.03,0.875757,209.03,1.62379,209.03,3.02105,209.03,3.94911
207.458,0.436271,207.458,0.629104,207.458,0.918755,207.458,1.71299,207.458,3.20261,207.458,4.17548
206.043,0.469891,206.043,0.673057,206.043,0.975723,206.043,1.79799,206.043,3.2978,206.043,4.39969
204.471,0.530256,204.471,0.753766,204.471,1.08397,204.471,1.97162,204.471,3.48242,204.471,3.90776
203.056,0.599904,203.056,0.837563,203.056,1.19381,203.056,2.16738,203.056,3.53735,203.056,3.6514
201.483,0.688141,201.483,0.941874,201.483,1.31803,201.483,2.37425,201.483,3.49943,201.483,3.77938
200.068,0.779601,200.068,1.04925,200.068,1.43704,200.068,2.56155,200.068,3.69711,200.068,3.87834
,,,,,,,,,,,
is_2_1_7uM,,,,,,,,,,,
is_2_1_7uM,,,,,,,,,,,
Collection Time: 4/2/2024 1:03:53 PM,,,,,,,,,,,
Operator Name  :,,,,,,,,,,,
Scan Software Version: 3.00(339),,,,,,,,,,,
Parameter List :,,,,,,,,,,,
Instrument                        Cary 50,,,,,,,,,,,
Instrument Version                3.00,,,,,,,,,,,
Start (nm)                        800.0,,,,,,,,,,,
Stop (nm)                         200.0,,,,,,,,,,,
X Mode                            Nanometers,,,,,,,,,,,
Y Mode                            Abs,,,,,,,,,,,
UV-Vis Scan Rate (nm/min)         300.00,,,,,,,,,,,
UV-Vis Data Interval (nm)         0.50,,,,,,,,,,,
UV-Vis Ave. Time (sec)            0.1000,,,,,,,,,,,
Beam Mode                         Dual Beam,,,,,,,,,,,
Baseline Correction               Off,,,,,,,,,,,
Cycle Mode                        Off,,,,,,,,,,,
Comments,,,,,,,,,,,
Method Log     :,,,,,,,,,,,
Method Name    :,,,,,,,,,,,
Date/Time stamp: 3/8/2024 4:34:39 PM,,,,,,,,,,,
Method Modifications:,,,,,,,,,,,
UVVIS SAT Changed: 4/2/2024 1:01:48 PM, Old:0.0125, New:0.1000,,,,,,,,,
Common SAT Changed: 4/2/2024 1:01:48 PM, Old:0.0125, New:0.1000,,,,,,,,,
Common Interval nm Changed: 4/2/2024 1:01:49 PM, Old:     5.00, New:     0.50,,,,,,,,,
End Method Modifications,,,,,,,,,,,
<Current Wavelength> ,200.5,,,,,,,,,,
,,,,,,,,,,,
mbg_3_127_5_15uM,,,,,,,,,,,
mbg_3_127_5_15uM,,,,,,,,,,,
Collection Time: 4/2/2024 1:09:48 PM,,,,,,,,,,,
Operator Name  :,,,,,,,,,,,
Scan Software Version: 3.00(339),,,,,,,,,,,
Parameter List :,,,,,,,,,,,
Instrument                        Cary 50,,,,,,,,,,,
Instrument Version                3.00,,,,,,,,,,,
Start (nm)                        800.0,,,,,,,,,,,
Stop (nm)                         200.0,,,,,,,,,,,
X Mode                            Nanometers,,,,,,,,,,,
Y Mode                            Abs,,,,,,,,,,,
UV-Vis Scan Rate (nm/min)         300.00,,,,,,,,,,,
UV-Vis Data Interval (nm)         0.50,,,,,,,,,,,
UV-Vis Ave. Time (sec)            0.1000,,,,,,,,,,,
Beam Mode                         Dual Beam,,,,,,,,,,,
Baseline Correction               Off,,,,,,,,,,,
Cycle Mode                        Off,,,,,,,,,,,
Comments,,,,,,,,,,,
Method Log     :,,,,,,,,,,,
Method Name    :,,,,,,,,,,,
Date/Time stamp: 3/8/2024 4:34:39 PM,,,,,,,,,,,
Method Modifications:,,,,,,,,,,,
UVVIS SAT Changed: 4/2/2024 1:01:48 PM, Old:0.0125, New:0.1000,,,,,,,,,
Common SAT Changed: 4/2/2024 1:01:48 PM, Old:0.0125, New:0.1000,,,,,,,,,
Common Interval nm Changed: 4/2/2024 1:01:49 PM, Old:     5.00, New:     0.50,,,,,,,,,
End Method Modifications,,,,,,,,,,,
<Current Wavelength> ,200.5,,,,,,,,,,
,,,,,,,,,,,
mbg_3_127_5_31uM1,,,,,,,,,,,
mbg_3_127_5_31uM1,,,,,,,,,,,
Collection Time: 4/2/2024 1:14:14 PM,,,,,,,,,,,
Operator Name  :,,,,,,,,,,,
Scan Software Version: 3.00(339),,,,,,,,,,,
Parameter List :,,,,,,,,,,,
Instrument                        Cary 50,,,,,,,,,,,
Instrument Version                3.00,,,,,,,,,,,
Start (nm)                        800.0,,,,,,,,,,,
Stop (nm)                         200.0,,,,,,,,,,,
X Mode                            Nanometers,,,,,,,,,,,
Y Mode                            Abs,,,,,,,,,,,
UV-Vis Scan Rate (nm/min)         300.00,,,,,,,,,,,
UV-Vis Data Interval (nm)         0.50,,,,,,,,,,,
UV-Vis Ave. Time (sec)            0.1000,,,,,,,,,,,
Beam Mode                         Dual Beam,,,,,,,,,,,
Baseline Correction               Off,,,,,,,,,,,
Cycle Mode                        Off,,,,,,,,,,,
Comments,,,,,,,,,,,
Method Log     :,,,,,,,,,,,
Method Name    :,,,,,,,,,,,
Date/Time stamp: 3/8/2024 4:34:39 PM,,,,,,,,,,,
Method Modifications:,,,,,,,,,,,
UVVIS SAT Changed: 4/2/2024 1:01:48 PM, Old:0.0125, New:0.1000,,,,,,,,,
Common SAT Changed: 4/2/2024 1:01:48 PM, Old:0.0125, New:0.1000,,,,,,,,,
Common Interval nm Changed: 4/2/2024 1:01:49 PM, Old:     5.00, New:     0.50,,,,,,,,,
End Method Modifications,,,,,,,,,,,
<Current Wavelength> ,200.5,,,,,,,,,,
,,,,,,,,,,,
mbg_3_127_5_62uM3,,,,,,,,,,,
mbg_3_127_5_62uM3,,,,,,,,,,,
Collection Time: 4/2/2024 1:24:01 PM,,,,,,,,,,,
Operator Name  :,,,,,,,,,,,
Scan Software Version: 3.00(339),,,,,,,,,,,
Parameter List :,,,,,,,,,,,
Instrument                        Cary 50,,,,,,,,,,,
Instrument Version                3.00,,,,,,,,,,,
Start (nm)                        800.0,,,,,,,,,,,
Stop (nm)                         200.0,,,,,,,,,,,
X Mode                            Nanometers,,,,,,,,,,,
Y Mode                            Abs,,,,,,,,,,,
UV-Vis Scan Rate (nm/min)         300.00,,,,,,,,,,,
UV-Vis Data Interval (nm)         0.50,,,,,,,,,,,
UV-Vis Ave. Time (sec)            0.1000,,,,,,,,,,,
Beam Mode                         Dual Beam,,,,,,,,,,,
Baseline Correction               Off,,,,,,,,,,,
Cycle Mode                        Off,,,,,,,,,,,
Comments,,,,,,,,,,,
Method Log     :,,,,,,,,,,,
Method Name    :,,,,,,,,,,,
Date/Time stamp: 3/8/2024 4:34:39 PM,,,,,,,,,,,
Method Modifications:,,,,,,,,,,,
UVVIS SAT Changed: 4/2/2024 1:01:48 PM, Old:0.0125, New:0.1000,,,,,,,,,
Common SAT Changed: 4/2/2024 1:01:48 PM, Old:0.0125, New:0.1000,,,,,,,,,
Common Interval nm Changed: 4/2/2024 1:01:49 PM, Old:     5.00, New:     0.50,,,,,,,,,
End Method Modifications,,,,,,,,,,,
<Current Wavelength> ,200.5,,,,,,,,,,
,,,,,,,,,,,
mbg_3_127_5_250uM,,,,,,,,,,,
mbg_3_127_5_250uM,,,,,,,,,,,
Collection Time: 4/2/2024 1:35:58 PM,,,,,,,,,,,
Operator Name  :,,,,,,,,,,,
Scan Software Version: 3.00(339),,,,,,,,,,,
Parameter List :,,,,,,,,,,,
Instrument                        Cary 50,,,,,,,,,,,
Instrument Version                3.00,,,,,,,,,,,
Start (nm)                        800.0,,,,,,,,,,,
Stop (nm)                         200.0,,,,,,,,,,,
X Mode                            Nanometers,,,,,,,,,,,
Y Mode                            Abs,,,,,,,,,,,
UV-Vis Scan Rate (nm/min)         300.00,,,,,,,,,,,
UV-Vis Data Interval (nm)         0.50,,,,,,,,,,,
UV-Vis Ave. Time (sec)            0.1000,,,,,,,,,,,
Beam Mode                         Dual Beam,,,,,,,,,,,
Baseline Correction               Off,,,,,,,,,,,
Cycle Mode                        Off,,,,,,,,,,,
Comments,,,,,,,,,,,
Method Log     :,,,,,,,,,,,
Method Name    :,,,,,,,,,,,
Date/Time stamp: 3/8/2024 4:34:39 PM,,,,,,,,,,,
Method Modifications:,,,,,,,,,,,
UVVIS SAT Changed: 4/2/2024 1:01:48 PM, Old:0.0125, New:0.1000,,,,,,,,,
Common SAT Changed: 4/2/2024 1:01:48 PM, Old:0.0125, New:0.1000,,,,,,,,,
Common Interval nm Changed: 4/2/2024 1:01:49 PM, Old:     5.00, New:     0.50,,,,,,,,,
End Method Modifications,,,,,,,,,,,
<Current Wavelength> ,200.5,,,,,,,,,,
,,,,,,,,,,,
mbg_3_127_5_125uM2,,,,,,,,,,,
mbg_3_127_5_125uM2,,,,,,,,,,,
Collection Time: 4/2/2024 1:20:20 PM,,,,,,,,,,,
Operator Name  :,,,,,,,,,,,
Scan Software Version: 3.00(339),,,,,,,,,,,
Parameter List :,,,,,,,,,,,
Instrument                        Cary 50,,,,,,,,,,,
Instrument Version                3.00,,,,,,,,,,,
Start (nm)                        800.0,,,,,,,,,,,
Stop (nm)                         200.0,,,,,,,,,,,
X Mode                            Nanometers,,,,,,,,,,,
Y Mode                            Abs,,,,,,,,,,,
UV-Vis Scan Rate (nm/min)         300.00,,,,,,,,,,,
UV-Vis Data Interval (nm)         0.50,,,,,,,,,,,
UV-Vis Ave. Time (sec)            0.1000,,,,,,,,,,,
Beam Mode                         Dual Beam,,,,,,,,,,,
Baseline Correction               Off,,,,,,,,,,,
Cycle Mode                        Off,,,,,,,,,,,
Comments,,,,,,,,,,,
Method Log     :,,,,,,,,,,,
Method Name    :,,,,,,,,,,,
Date/Time stamp: 3/8/2024 4:34:39 PM,,,,,,,,,,,
Method Modifications:,,,,,,,,,,,
UVVIS SAT Changed: 4/2/2024 1:01:48 PM, Old:0.0125, New:0.1000,,,,,,,,,
Common SAT Changed: 4/2/2024 1:01:48 PM, Old:0.0125, New:0.1000,,,,,,,,,
Common Interval nm Changed: 4/2/2024 1:01:49 PM, Old:     5.00, New:     0.50,,,,,,,,,
End Method Modifications,,,,,,,,,,,
<Current Wavelength> ,200.5,,,,,,,,,,